participant_id,random_id,trial_index,trial_number,time_elapsed,test_triplet,foil_triplet,correct,is_right,firstSequencePaths,secondSequencePaths,response,rt,correct_response
pelican,p0hlt41tr55,471,1,498317,"[""J"",""K"",""L""]","[""J"",""B"",""F""]",TRUE,1,"[""<p>Sequence 1</p>"",""stimuli/desert_23.jpg"",""stimuli/coast_14.jpg"",""stimuli/field_54.jpg""]","[""<p>Sequence 2</p>"",""stimuli/desert_23.jpg"",""stimuli/stream_6.jpg"",""stimuli/bathroom_57.jpg""]",1,305,1
pelican,p0hlt41tr55,481,2,508291,"[""D"",""E"",""F""]","[""J"",""B"",""F""]",TRUE,1,"[""<p>Sequence 1</p>"",""stimuli/kitchen_41.jpg"",""stimuli/street_54.jpg"",""stimuli/bathroom_57.jpg""]","[""<p>Sequence 2</p>"",""stimuli/desert_23.jpg"",""stimuli/stream_6.jpg"",""stimuli/bathroom_57.jpg""]",1,949,1
pelican,p0hlt41tr55,491,3,518289,"[""J"",""K"",""L""]","[""D"",""H"",""L""]",FALSE,0,"[""<p>Sequence 1</p>"",""stimuli/desert_23.jpg"",""stimuli/coast_14.jpg"",""stimuli/field_54.jpg""]","[""<p>Sequence 2</p>"",""stimuli/kitchen_41.jpg"",""stimuli/playground_11.jpg"",""stimuli/field_54.jpg""]",2,973,1
pelican,p0hlt41tr55,501,4,527401,"[""J"",""K"",""L""]","[""G"",""K"",""C""]",TRUE,1,"[""<p>Sequence 1</p>"",""stimuli/gym_42.jpg"",""stimuli/coast_14.jpg"",""stimuli/woods_28.jpg""]","[""<p>Sequence 2</p>"",""stimuli/desert_23.jpg"",""stimuli/coast_14.jpg"",""stimuli/field_54.jpg""]",2,85,2
pelican,p0hlt41tr55,511,5,537481,"[""A"",""B"",""C""]","[""G"",""K"",""C""]",TRUE,1,"[""<p>Sequence 1</p>"",""stimuli/gym_42.jpg"",""stimuli/coast_14.jpg"",""stimuli/woods_28.jpg""]","[""<p>Sequence 2</p>"",""stimuli/bridge_8.jpg"",""stimuli/stream_6.jpg"",""stimuli/woods_28.jpg""]",2,1054,2
pelican,p0hlt41tr55,521,6,547028,"[""D"",""E"",""F""]","[""G"",""K"",""C""]",TRUE,1,"[""<p>Sequence 1</p>"",""stimuli/gym_42.jpg"",""stimuli/coast_14.jpg"",""stimuli/woods_28.jpg""]","[""<p>Sequence 2</p>"",""stimuli/kitchen_41.jpg"",""stimuli/street_54.jpg"",""stimuli/bathroom_57.jpg""]",2,528,2
pelican,p0hlt41tr55,531,7,557048,"[""G"",""H"",""I""]","[""A"",""E"",""I""]",TRUE,1,"[""<p>Sequence 1</p>"",""stimuli/bridge_8.jpg"",""stimuli/street_54.jpg"",""stimuli/bar_48.jpg""]","[""<p>Sequence 2</p>"",""stimuli/gym_42.jpg"",""stimuli/playground_11.jpg"",""stimuli/bar_48.jpg""]",2,999,2
pelican,p0hlt41tr55,541,8,566141,"[""G"",""H"",""I""]","[""D"",""H"",""L""]",TRUE,1,"[""<p>Sequence 1</p>"",""stimuli/gym_42.jpg"",""stimuli/playground_11.jpg"",""stimuli/bar_48.jpg""]","[""<p>Sequence 2</p>"",""stimuli/kitchen_41.jpg"",""stimuli/playground_11.jpg"",""stimuli/field_54.jpg""]",1,73,1
pelican,p0hlt41tr55,551,9,575473,"[""G"",""H"",""I""]","[""G"",""K"",""C""]",TRUE,1,"[""<p>Sequence 1</p>"",""stimuli/gym_42.jpg"",""stimuli/coast_14.jpg"",""stimuli/woods_28.jpg""]","[""<p>Sequence 2</p>"",""stimuli/gym_42.jpg"",""stimuli/playground_11.jpg"",""stimuli/bar_48.jpg""]",2,309,2
pelican,p0hlt41tr55,561,10,586253,"[""A"",""B"",""C""]","[""D"",""H"",""L""]",FALSE,0,"[""<p>Sequence 1</p>"",""stimuli/bridge_8.jpg"",""stimuli/stream_6.jpg"",""stimuli/woods_28.jpg""]","[""<p>Sequence 2</p>"",""stimuli/kitchen_41.jpg"",""stimuli/playground_11.jpg"",""stimuli/field_54.jpg""]",2,1758,1
pelican,p0hlt41tr55,571,11,595618,"[""A"",""B"",""C""]","[""A"",""E"",""I""]",FALSE,0,"[""<p>Sequence 1</p>"",""stimuli/bridge_8.jpg"",""stimuli/stream_6.jpg"",""stimuli/woods_28.jpg""]","[""<p>Sequence 2</p>"",""stimuli/bridge_8.jpg"",""stimuli/street_54.jpg"",""stimuli/bar_48.jpg""]",2,346,1
pelican,p0hlt41tr55,581,12,609451,"[""J"",""K"",""L""]","[""A"",""E"",""I""]",TRUE,1,"[""<p>Sequence 1</p>"",""stimuli/desert_23.jpg"",""stimuli/coast_14.jpg"",""stimuli/field_54.jpg""]","[""<p>Sequence 2</p>"",""stimuli/bridge_8.jpg"",""stimuli/street_54.jpg"",""stimuli/bar_48.jpg""]",1,4815,1
pelican,p0hlt41tr55,591,13,619046,"[""D"",""E"",""F""]","[""D"",""H"",""L""]",TRUE,1,"[""<p>Sequence 1</p>"",""stimuli/kitchen_41.jpg"",""stimuli/playground_11.jpg"",""stimuli/field_54.jpg""]","[""<p>Sequence 2</p>"",""stimuli/kitchen_41.jpg"",""stimuli/street_54.jpg"",""stimuli/bathroom_57.jpg""]",2,578,2
pelican,p0hlt41tr55,601,14,628151,"[""G"",""H"",""I""]","[""J"",""B"",""F""]",FALSE,0,"[""<p>Sequence 1</p>"",""stimuli/desert_23.jpg"",""stimuli/stream_6.jpg"",""stimuli/bathroom_57.jpg""]","[""<p>Sequence 2</p>"",""stimuli/gym_42.jpg"",""stimuli/playground_11.jpg"",""stimuli/bar_48.jpg""]",1,80,2
pelican,p0hlt41tr55,611,15,637224,"[""A"",""B"",""C""]","[""J"",""B"",""F""]",TRUE,1,"[""<p>Sequence 1</p>"",""stimuli/bridge_8.jpg"",""stimuli/stream_6.jpg"",""stimuli/woods_28.jpg""]","[""<p>Sequence 2</p>"",""stimuli/desert_23.jpg"",""stimuli/stream_6.jpg"",""stimuli/bathroom_57.jpg""]",1,49,1
pelican,p0hlt41tr55,621,16,646657,"[""D"",""E"",""F""]","[""A"",""E"",""I""]",TRUE,1,"[""<p>Sequence 1</p>"",""stimuli/bridge_8.jpg"",""stimuli/street_54.jpg"",""stimuli/bar_48.jpg""]","[""<p>Sequence 2</p>"",""stimuli/kitchen_41.jpg"",""stimuli/street_54.jpg"",""stimuli/bathroom_57.jpg""]",2,408,2
manatee,p0rqdol6vkq,477,1,512347,"[""A"",""B"",""C""]","[""J"",""B"",""F""]",TRUE,1,"[""<p>Sequence 1</p>"",""stimuli/bridge_55.jpg"",""stimuli/street_13.jpg"",""stimuli/woods_63.jpg""]","[""<p>Sequence 2</p>"",""stimuli/desert_18.jpg"",""stimuli/street_13.jpg"",""stimuli/field_25.jpg""]",1,2173,1
manatee,p0rqdol6vkq,487,2,522194,"[""D"",""E"",""F""]","[""D"",""H"",""L""]",TRUE,1,"[""<p>Sequence 1</p>"",""stimuli/coast_14.jpg"",""stimuli/kitchen_16.jpg"",""stimuli/bar_21.jpg""]","[""<p>Sequence 2</p>"",""stimuli/coast_14.jpg"",""stimuli/stream_36.jpg"",""stimuli/field_25.jpg""]",2,766,2
manatee,p0rqdol6vkq,497,3,531435,"[""A"",""B"",""C""]","[""A"",""E"",""I""]",FALSE,0,"[""<p>Sequence 1</p>"",""stimuli/bridge_55.jpg"",""stimuli/street_13.jpg"",""stimuli/woods_63.jpg""]","[""<p>Sequence 2</p>"",""stimuli/bridge_55.jpg"",""stimuli/stream_36.jpg"",""stimuli/playground_28.jpg""]",2,144,1
manatee,p0rqdol6vkq,507,4,541265,"[""D"",""E"",""F""]","[""J"",""B"",""F""]",TRUE,1,"[""<p>Sequence 1</p>"",""stimuli/desert_18.jpg"",""stimuli/street_13.jpg"",""stimuli/field_25.jpg""]","[""<p>Sequence 2</p>"",""stimuli/coast_14.jpg"",""stimuli/stream_36.jpg"",""stimuli/field_25.jpg""]",2,718,2
manatee,p0rqdol6vkq,517,5,550483,"[""J"",""K"",""L""]","[""J"",""B"",""F""]",FALSE,0,"[""<p>Sequence 1</p>"",""stimuli/desert_18.jpg"",""stimuli/street_13.jpg"",""stimuli/field_25.jpg""]","[""<p>Sequence 2</p>"",""stimuli/desert_18.jpg"",""stimuli/gym_63.jpg"",""stimuli/bar_21.jpg""]",1,134,2
manatee,p0rqdol6vkq,527,6,560256,"[""J"",""K"",""L""]","[""G"",""K"",""C""]",TRUE,1,"[""<p>Sequence 1</p>"",""stimuli/bathroom_59.jpg"",""stimuli/gym_63.jpg"",""stimuli/woods_63.jpg""]","[""<p>Sequence 2</p>"",""stimuli/desert_18.jpg"",""stimuli/gym_63.jpg"",""stimuli/bar_21.jpg""]",2,678,2
manatee,p0rqdol6vkq,537,7,574106,"[""A"",""B"",""C""]","[""D"",""H"",""L""]",FALSE,0,"[""<p>Sequence 1</p>"",""stimuli/bridge_55.jpg"",""stimuli/street_13.jpg"",""stimuli/woods_63.jpg""]","[""<p>Sequence 2</p>"",""stimuli/coast_14.jpg"",""stimuli/kitchen_16.jpg"",""stimuli/bar_21.jpg""]",2,4779,1
manatee,p0rqdol6vkq,547,8,583738,"[""G"",""H"",""I""]","[""J"",""B"",""F""]",TRUE,1,"[""<p>Sequence 1</p>"",""stimuli/bathroom_59.jpg"",""stimuli/kitchen_16.jpg"",""stimuli/playground_28.jpg""]","[""<p>Sequence 2</p>"",""stimuli/desert_18.jpg"",""stimuli/street_13.jpg"",""stimuli/field_25.jpg""]",1,549,1
manatee,p0rqdol6vkq,557,9,593062,"[""G"",""H"",""I""]","[""G"",""K"",""C""]",TRUE,1,"[""<p>Sequence 1</p>"",""stimuli/bathroom_59.jpg"",""stimuli/kitchen_16.jpg"",""stimuli/playground_28.jpg""]","[""<p>Sequence 2</p>"",""stimuli/bathroom_59.jpg"",""stimuli/gym_63.jpg"",""stimuli/woods_63.jpg""]",1,226,1
manatee,p0rqdol6vkq,567,10,602553,"[""G"",""H"",""I""]","[""D"",""H"",""L""]",TRUE,1,"[""<p>Sequence 1</p>"",""stimuli/bathroom_59.jpg"",""stimuli/kitchen_16.jpg"",""stimuli/playground_28.jpg""]","[""<p>Sequence 2</p>"",""stimuli/coast_14.jpg"",""stimuli/kitchen_16.jpg"",""stimuli/bar_21.jpg""]",1,417,1
manatee,p0rqdol6vkq,577,11,612120,"[""J"",""K"",""L""]","[""D"",""H"",""L""]",FALSE,0,"[""<p>Sequence 1</p>"",""stimuli/desert_18.jpg"",""stimuli/gym_63.jpg"",""stimuli/bar_21.jpg""]","[""<p>Sequence 2</p>"",""stimuli/coast_14.jpg"",""stimuli/kitchen_16.jpg"",""stimuli/bar_21.jpg""]",2,461,1
manatee,p0rqdol6vkq,587,12,621974,"[""J"",""K"",""L""]","[""A"",""E"",""I""]",TRUE,1,"[""<p>Sequence 1</p>"",""stimuli/desert_18.jpg"",""stimuli/gym_63.jpg"",""stimuli/bar_21.jpg""]","[""<p>Sequence 2</p>"",""stimuli/bridge_55.jpg"",""stimuli/stream_36.jpg"",""stimuli/playground_28.jpg""]",1,778,1
manatee,p0rqdol6vkq,597,13,632519,"[""D"",""E"",""F""]","[""G"",""K"",""C""]",FALSE,0,"[""<p>Sequence 1</p>"",""stimuli/coast_14.jpg"",""stimuli/stream_36.jpg"",""stimuli/field_25.jpg""]","[""<p>Sequence 2</p>"",""stimuli/bathroom_59.jpg"",""stimuli/gym_63.jpg"",""stimuli/woods_63.jpg""]",2,1470,1
manatee,p0rqdol6vkq,607,14,641821,"[""G"",""H"",""I""]","[""A"",""E"",""I""]",FALSE,0,"[""<p>Sequence 1</p>"",""stimuli/bridge_55.jpg"",""stimuli/stream_36.jpg"",""stimuli/playground_28.jpg""]","[""<p>Sequence 2</p>"",""stimuli/bathroom_59.jpg"",""stimuli/kitchen_16.jpg"",""stimuli/playground_28.jpg""]",1,223,2
manatee,p0rqdol6vkq,617,15,651795,"[""A"",""B"",""C""]","[""G"",""K"",""C""]",TRUE,1,"[""<p>Sequence 1</p>"",""stimuli/bathroom_59.jpg"",""stimuli/gym_63.jpg"",""stimuli/woods_63.jpg""]","[""<p>Sequence 2</p>"",""stimuli/bridge_55.jpg"",""stimuli/street_13.jpg"",""stimuli/woods_63.jpg""]",2,884,2
manatee,p0rqdol6vkq,627,16,661308,"[""D"",""E"",""F""]","[""A"",""E"",""I""]",FALSE,0,"[""<p>Sequence 1</p>"",""stimuli/bridge_55.jpg"",""stimuli/stream_36.jpg"",""stimuli/playground_28.jpg""]","[""<p>Sequence 2</p>"",""stimuli/coast_14.jpg"",""stimuli/stream_36.jpg"",""stimuli/field_25.jpg""]",1,418,2
flamingo,p0skpjr7w1p,486,1,1533445,"[""A"",""B"",""C""]","[""D"",""H"",""L""]",TRUE,1,"[""<p>Sequence 1</p>"",""stimuli/gym_4.jpg"",""stimuli/playground_16.jpg"",""stimuli/street_23.jpg""]","[""<p>Sequence 2</p>"",""stimuli/field_23.jpg"",""stimuli/desert_21.jpg"",""stimuli/kitchen_43.jpg""]",1,1900,1
flamingo,p0skpjr7w1p,496,2,1543520,"[""D"",""E"",""F""]","[""G"",""K"",""C""]",TRUE,1,"[""<p>Sequence 1</p>"",""stimuli/stream_37.jpg"",""stimuli/woods_33.jpg"",""stimuli/street_23.jpg""]","[""<p>Sequence 2</p>"",""stimuli/field_23.jpg"",""stimuli/bathroom_24.jpg"",""stimuli/bridge_12.jpg""]",2,1046,2
flamingo,p0skpjr7w1p,506,3,1557068,"[""J"",""K"",""L""]","[""D"",""H"",""L""]",TRUE,1,"[""<p>Sequence 1</p>"",""stimuli/coast_25.jpg"",""stimuli/woods_33.jpg"",""stimuli/kitchen_43.jpg""]","[""<p>Sequence 2</p>"",""stimuli/field_23.jpg"",""stimuli/desert_21.jpg"",""stimuli/kitchen_43.jpg""]",1,4519,1
flamingo,p0skpjr7w1p,516,4,1567147,"[""J"",""K"",""L""]","[""J"",""B"",""F""]",TRUE,1,"[""<p>Sequence 1</p>"",""stimuli/coast_25.jpg"",""stimuli/woods_33.jpg"",""stimuli/kitchen_43.jpg""]","[""<p>Sequence 2</p>"",""stimuli/coast_25.jpg"",""stimuli/playground_16.jpg"",""stimuli/bridge_12.jpg""]",1,1058,1
flamingo,p0skpjr7w1p,526,5,1576274,"[""A"",""B"",""C""]","[""G"",""K"",""C""]",FALSE,0,"[""<p>Sequence 1</p>"",""stimuli/gym_4.jpg"",""stimuli/playground_16.jpg"",""stimuli/street_23.jpg""]","[""<p>Sequence 2</p>"",""stimuli/stream_37.jpg"",""stimuli/woods_33.jpg"",""stimuli/street_23.jpg""]",2,100,1
flamingo,p0skpjr7w1p,536,6,1587474,"[""G"",""H"",""I""]","[""G"",""K"",""C""]",TRUE,1,"[""<p>Sequence 1</p>"",""stimuli/stream_37.jpg"",""stimuli/woods_33.jpg"",""stimuli/street_23.jpg""]","[""<p>Sequence 2</p>"",""stimuli/stream_37.jpg"",""stimuli/desert_21.jpg"",""stimuli/bar_16.jpg""]",2,2174,2
flamingo,p0skpjr7w1p,546,7,1598086,"[""D"",""E"",""F""]","[""D"",""H"",""L""]",FALSE,0,"[""<p>Sequence 1</p>"",""stimuli/field_23.jpg"",""stimuli/bathroom_24.jpg"",""stimuli/bridge_12.jpg""]","[""<p>Sequence 2</p>"",""stimuli/field_23.jpg"",""stimuli/desert_21.jpg"",""stimuli/kitchen_43.jpg""]",2,1585,1
flamingo,p0skpjr7w1p,556,8,1607584,"[""D"",""E"",""F""]","[""J"",""B"",""F""]",TRUE,1,"[""<p>Sequence 1</p>"",""stimuli/coast_25.jpg"",""stimuli/playground_16.jpg"",""stimuli/bridge_12.jpg""]","[""<p>Sequence 2</p>"",""stimuli/field_23.jpg"",""stimuli/bathroom_24.jpg"",""stimuli/bridge_12.jpg""]",2,467,2
flamingo,p0skpjr7w1p,566,9,1616919,"[""D"",""E"",""F""]","[""A"",""E"",""I""]",FALSE,0,"[""<p>Sequence 1</p>"",""stimuli/field_23.jpg"",""stimuli/bathroom_24.jpg"",""stimuli/bridge_12.jpg""]","[""<p>Sequence 2</p>"",""stimuli/gym_4.jpg"",""stimuli/bathroom_24.jpg"",""stimuli/bar_16.jpg""]",2,311,1
flamingo,p0skpjr7w1p,576,10,1627232,"[""J"",""K"",""L""]","[""A"",""E"",""I""]",FALSE,0,"[""<p>Sequence 1</p>"",""stimuli/coast_25.jpg"",""stimuli/woods_33.jpg"",""stimuli/kitchen_43.jpg""]","[""<p>Sequence 2</p>"",""stimuli/gym_4.jpg"",""stimuli/bathroom_24.jpg"",""stimuli/bar_16.jpg""]",2,1284,1
flamingo,p0skpjr7w1p,586,11,1638926,"[""G"",""H"",""I""]","[""A"",""E"",""I""]",FALSE,0,"[""<p>Sequence 1</p>"",""stimuli/gym_4.jpg"",""stimuli/bathroom_24.jpg"",""stimuli/bar_16.jpg""]","[""<p>Sequence 2</p>"",""stimuli/stream_37.jpg"",""stimuli/desert_21.jpg"",""stimuli/bar_16.jpg""]",1,2668,2
flamingo,p0skpjr7w1p,596,12,1648308,"[""J"",""K"",""L""]","[""G"",""K"",""C""]",FALSE,0,"[""<p>Sequence 1</p>"",""stimuli/coast_25.jpg"",""stimuli/woods_33.jpg"",""stimuli/kitchen_43.jpg""]","[""<p>Sequence 2</p>"",""stimuli/stream_37.jpg"",""stimuli/woods_33.jpg"",""stimuli/street_23.jpg""]",2,356,1
flamingo,p0skpjr7w1p,606,13,1657895,"[""G"",""H"",""I""]","[""D"",""H"",""L""]",TRUE,1,"[""<p>Sequence 1</p>"",""stimuli/stream_37.jpg"",""stimuli/desert_21.jpg"",""stimuli/bar_16.jpg""]","[""<p>Sequence 2</p>"",""stimuli/field_23.jpg"",""stimuli/desert_21.jpg"",""stimuli/kitchen_43.jpg""]",1,560,1
flamingo,p0skpjr7w1p,616,14,1667229,"[""G"",""H"",""I""]","[""J"",""B"",""F""]",FALSE,0,"[""<p>Sequence 1</p>"",""stimuli/stream_37.jpg"",""stimuli/desert_21.jpg"",""stimuli/bar_16.jpg""]","[""<p>Sequence 2</p>"",""stimuli/coast_25.jpg"",""stimuli/playground_16.jpg"",""stimuli/bridge_12.jpg""]",2,309,1
flamingo,p0skpjr7w1p,626,15,1677333,"[""A"",""B"",""C""]","[""J"",""B"",""F""]",FALSE,0,"[""<p>Sequence 1</p>"",""stimuli/gym_4.jpg"",""stimuli/playground_16.jpg"",""stimuli/street_23.jpg""]","[""<p>Sequence 2</p>"",""stimuli/coast_25.jpg"",""stimuli/playground_16.jpg"",""stimuli/bridge_12.jpg""]",2,1078,1
flamingo,p0skpjr7w1p,636,16,1686442,"[""A"",""B"",""C""]","[""A"",""E"",""I""]",FALSE,0,"[""<p>Sequence 1</p>"",""stimuli/gym_4.jpg"",""stimuli/playground_16.jpg"",""stimuli/street_23.jpg""]","[""<p>Sequence 2</p>"",""stimuli/gym_4.jpg"",""stimuli/bathroom_24.jpg"",""stimuli/bar_16.jpg""]",2,85,1
trex,p1mzf32delq,504,1,528553,"[""A"",""B"",""C""]","[""A"",""E"",""I""]",TRUE,1,"[""<p>Sequence 1</p>"",""stimuli/bathroom_37.jpg"",""stimuli/woods_26.jpg"",""stimuli/playground_10.jpg""]","[""<p>Sequence 2</p>"",""stimuli/bathroom_37.jpg"",""stimuli/kitchen_50.jpg"",""stimuli/field_54.jpg""]",2,520,2
trex,p1mzf32delq,514,2,537892,"[""A"",""B"",""C""]","[""J"",""B"",""F""]",TRUE,1,"[""<p>Sequence 1</p>"",""stimuli/bar_67.jpg"",""stimuli/kitchen_50.jpg"",""stimuli/bridge_19.jpg""]","[""<p>Sequence 2</p>"",""stimuli/bathroom_37.jpg"",""stimuli/kitchen_50.jpg"",""stimuli/field_54.jpg""]",2,303,2
trex,p1mzf32delq,524,3,547145,"[""J"",""K"",""L""]","[""J"",""B"",""F""]",TRUE,1,"[""<p>Sequence 1</p>"",""stimuli/bar_67.jpg"",""stimuli/kitchen_50.jpg"",""stimuli/bridge_19.jpg""]","[""<p>Sequence 2</p>"",""stimuli/bar_67.jpg"",""stimuli/gym_52.jpg"",""stimuli/desert_50.jpg""]",2,220,2
trex,p1mzf32delq,534,4,556390,"[""D"",""E"",""F""]","[""D"",""H"",""L""]",TRUE,1,"[""<p>Sequence 1</p>"",""stimuli/coast_54.jpg"",""stimuli/street_8.jpg"",""stimuli/desert_50.jpg""]","[""<p>Sequence 2</p>"",""stimuli/coast_54.jpg"",""stimuli/woods_26.jpg"",""stimuli/bridge_19.jpg""]",2,214,2
trex,p1mzf32delq,544,5,565421,"[""J"",""K"",""L""]","[""G"",""K"",""C""]",TRUE,1,"[""<p>Sequence 1</p>"",""stimuli/bar_67.jpg"",""stimuli/gym_52.jpg"",""stimuli/desert_50.jpg""]","[""<p>Sequence 2</p>"",""stimuli/stream_42.jpg"",""stimuli/gym_52.jpg"",""stimuli/field_54.jpg""]",1,0,1
trex,p1mzf32delq,554,6,576644,"[""A"",""B"",""C""]","[""D"",""H"",""L""]",TRUE,1,"[""<p>Sequence 1</p>"",""stimuli/bathroom_37.jpg"",""stimuli/kitchen_50.jpg"",""stimuli/field_54.jpg""]","[""<p>Sequence 2</p>"",""stimuli/coast_54.jpg"",""stimuli/street_8.jpg"",""stimuli/desert_50.jpg""]",1,2194,1
trex,p1mzf32delq,564,7,585883,"[""J"",""K"",""L""]","[""A"",""E"",""I""]",TRUE,1,"[""<p>Sequence 1</p>"",""stimuli/bathroom_37.jpg"",""stimuli/woods_26.jpg"",""stimuli/playground_10.jpg""]","[""<p>Sequence 2</p>"",""stimuli/bar_67.jpg"",""stimuli/gym_52.jpg"",""stimuli/desert_50.jpg""]",2,204,2
trex,p1mzf32delq,574,8,596718,"[""D"",""E"",""F""]","[""G"",""K"",""C""]",FALSE,0,"[""<p>Sequence 1</p>"",""stimuli/coast_54.jpg"",""stimuli/woods_26.jpg"",""stimuli/bridge_19.jpg""]","[""<p>Sequence 2</p>"",""stimuli/stream_42.jpg"",""stimuli/gym_52.jpg"",""stimuli/field_54.jpg""]",2,1804,1
trex,p1mzf32delq,584,9,609474,"[""D"",""E"",""F""]","[""A"",""E"",""I""]",FALSE,0,"[""<p>Sequence 1</p>"",""stimuli/bathroom_37.jpg"",""stimuli/woods_26.jpg"",""stimuli/playground_10.jpg""]","[""<p>Sequence 2</p>"",""stimuli/coast_54.jpg"",""stimuli/woods_26.jpg"",""stimuli/bridge_19.jpg""]",1,3717,2
trex,p1mzf32delq,594,10,619066,"[""G"",""H"",""I""]","[""J"",""B"",""F""]",TRUE,1,"[""<p>Sequence 1</p>"",""stimuli/stream_42.jpg"",""stimuli/street_8.jpg"",""stimuli/playground_10.jpg""]","[""<p>Sequence 2</p>"",""stimuli/bar_67.jpg"",""stimuli/kitchen_50.jpg"",""stimuli/bridge_19.jpg""]",1,560,1
trex,p1mzf32delq,604,11,628257,"[""A"",""B"",""C""]","[""G"",""K"",""C""]",FALSE,0,"[""<p>Sequence 1</p>"",""stimuli/bathroom_37.jpg"",""stimuli/kitchen_50.jpg"",""stimuli/field_54.jpg""]","[""<p>Sequence 2</p>"",""stimuli/stream_42.jpg"",""stimuli/gym_52.jpg"",""stimuli/field_54.jpg""]",2,156,1
trex,p1mzf32delq,614,12,640134,"[""G"",""H"",""I""]","[""D"",""H"",""L""]",TRUE,1,"[""<p>Sequence 1</p>"",""stimuli/stream_42.jpg"",""stimuli/street_8.jpg"",""stimuli/playground_10.jpg""]","[""<p>Sequence 2</p>"",""stimuli/coast_54.jpg"",""stimuli/street_8.jpg"",""stimuli/desert_50.jpg""]",1,2844,1
trex,p1mzf32delq,624,13,649440,"[""D"",""E"",""F""]","[""J"",""B"",""F""]",FALSE,0,"[""<p>Sequence 1</p>"",""stimuli/coast_54.jpg"",""stimuli/woods_26.jpg"",""stimuli/bridge_19.jpg""]","[""<p>Sequence 2</p>"",""stimuli/bar_67.jpg"",""stimuli/kitchen_50.jpg"",""stimuli/bridge_19.jpg""]",2,274,1
trex,p1mzf32delq,634,14,659739,"[""G"",""H"",""I""]","[""G"",""K"",""C""]",TRUE,1,"[""<p>Sequence 1</p>"",""stimuli/stream_42.jpg"",""stimuli/street_8.jpg"",""stimuli/playground_10.jpg""]","[""<p>Sequence 2</p>"",""stimuli/stream_42.jpg"",""stimuli/gym_52.jpg"",""stimuli/field_54.jpg""]",1,1268,1
trex,p1mzf32delq,644,15,669887,"[""G"",""H"",""I""]","[""A"",""E"",""I""]",TRUE,1,"[""<p>Sequence 1</p>"",""stimuli/stream_42.jpg"",""stimuli/street_8.jpg"",""stimuli/playground_10.jpg""]","[""<p>Sequence 2</p>"",""stimuli/bathroom_37.jpg"",""stimuli/woods_26.jpg"",""stimuli/playground_10.jpg""]",1,1114,1
trex,p1mzf32delq,654,16,679099,"[""J"",""K"",""L""]","[""D"",""H"",""L""]",TRUE,1,"[""<p>Sequence 1</p>"",""stimuli/bar_67.jpg"",""stimuli/gym_52.jpg"",""stimuli/desert_50.jpg""]","[""<p>Sequence 2</p>"",""stimuli/coast_54.jpg"",""stimuli/street_8.jpg"",""stimuli/desert_50.jpg""]",1,179,1
p73,p20xng64d9m,498,1,539963,"[""G"",""H"",""I""]","[""A"",""E"",""I""]",TRUE,1,"[""<p>Sequence 1</p>"",""stimuli/street_66.jpg"",""stimuli/field_49.jpg"",""stimuli/stream_50.jpg""]","[""<p>Sequence 2</p>"",""stimuli/playground_11.jpg"",""stimuli/bar_29.jpg"",""stimuli/stream_50.jpg""]",2,1509,2
p73,p20xng64d9m,508,2,549508,"[""A"",""B"",""C""]","[""J"",""B"",""F""]",TRUE,1,"[""<p>Sequence 1</p>"",""stimuli/street_66.jpg"",""stimuli/gym_67.jpg"",""stimuli/kitchen_6.jpg""]","[""<p>Sequence 2</p>"",""stimuli/desert_4.jpg"",""stimuli/gym_67.jpg"",""stimuli/coast_42.jpg""]",1,513,1
p73,p20xng64d9m,518,3,558939,"[""J"",""K"",""L""]","[""G"",""K"",""C""]",TRUE,1,"[""<p>Sequence 1</p>"",""stimuli/desert_4.jpg"",""stimuli/woods_26.jpg"",""stimuli/bridge_48.jpg""]","[""<p>Sequence 2</p>"",""stimuli/playground_11.jpg"",""stimuli/woods_26.jpg"",""stimuli/kitchen_6.jpg""]",1,391,1
p73,p20xng64d9m,528,4,568520,"[""D"",""E"",""F""]","[""G"",""K"",""C""]",TRUE,1,"[""<p>Sequence 1</p>"",""stimuli/playground_11.jpg"",""stimuli/woods_26.jpg"",""stimuli/kitchen_6.jpg""]","[""<p>Sequence 2</p>"",""stimuli/bathroom_36.jpg"",""stimuli/field_49.jpg"",""stimuli/coast_42.jpg""]",2,551,2
p73,p20xng64d9m,538,5,578119,"[""A"",""B"",""C""]","[""D"",""H"",""L""]",TRUE,1,"[""<p>Sequence 1</p>"",""stimuli/bathroom_36.jpg"",""stimuli/bar_29.jpg"",""stimuli/bridge_48.jpg""]","[""<p>Sequence 2</p>"",""stimuli/street_66.jpg"",""stimuli/gym_67.jpg"",""stimuli/kitchen_6.jpg""]",2,565,2
p73,p20xng64d9m,548,6,587777,"[""D"",""E"",""F""]","[""D"",""H"",""L""]",TRUE,1,"[""<p>Sequence 1</p>"",""stimuli/bathroom_36.jpg"",""stimuli/bar_29.jpg"",""stimuli/bridge_48.jpg""]","[""<p>Sequence 2</p>"",""stimuli/bathroom_36.jpg"",""stimuli/field_49.jpg"",""stimuli/coast_42.jpg""]",2,627,2
p73,p20xng64d9m,558,7,597268,"[""G"",""H"",""I""]","[""G"",""K"",""C""]",TRUE,1,"[""<p>Sequence 1</p>"",""stimuli/playground_11.jpg"",""stimuli/bar_29.jpg"",""stimuli/stream_50.jpg""]","[""<p>Sequence 2</p>"",""stimuli/playground_11.jpg"",""stimuli/woods_26.jpg"",""stimuli/kitchen_6.jpg""]",1,455,1
p73,p20xng64d9m,568,8,606682,"[""D"",""E"",""F""]","[""J"",""B"",""F""]",TRUE,1,"[""<p>Sequence 1</p>"",""stimuli/bathroom_36.jpg"",""stimuli/field_49.jpg"",""stimuli/coast_42.jpg""]","[""<p>Sequence 2</p>"",""stimuli/desert_4.jpg"",""stimuli/gym_67.jpg"",""stimuli/coast_42.jpg""]",1,381,1
p73,p20xng64d9m,578,9,616058,"[""J"",""K"",""L""]","[""J"",""B"",""F""]",TRUE,1,"[""<p>Sequence 1</p>"",""stimuli/desert_4.jpg"",""stimuli/woods_26.jpg"",""stimuli/bridge_48.jpg""]","[""<p>Sequence 2</p>"",""stimuli/desert_4.jpg"",""stimuli/gym_67.jpg"",""stimuli/coast_42.jpg""]",1,344,1
p73,p20xng64d9m,588,10,625402,"[""J"",""K"",""L""]","[""A"",""E"",""I""]",TRUE,1,"[""<p>Sequence 1</p>"",""stimuli/street_66.jpg"",""stimuli/field_49.jpg"",""stimuli/stream_50.jpg""]","[""<p>Sequence 2</p>"",""stimuli/desert_4.jpg"",""stimuli/woods_26.jpg"",""stimuli/bridge_48.jpg""]",2,310,2
p73,p20xng64d9m,598,11,634720,"[""D"",""E"",""F""]","[""A"",""E"",""I""]",TRUE,1,"[""<p>Sequence 1</p>"",""stimuli/street_66.jpg"",""stimuli/field_49.jpg"",""stimuli/stream_50.jpg""]","[""<p>Sequence 2</p>"",""stimuli/bathroom_36.jpg"",""stimuli/field_49.jpg"",""stimuli/coast_42.jpg""]",2,286,2
p73,p20xng64d9m,608,12,644866,"[""A"",""B"",""C""]","[""A"",""E"",""I""]",FALSE,0,"[""<p>Sequence 1</p>"",""stimuli/street_66.jpg"",""stimuli/field_49.jpg"",""stimuli/stream_50.jpg""]","[""<p>Sequence 2</p>"",""stimuli/street_66.jpg"",""stimuli/gym_67.jpg"",""stimuli/kitchen_6.jpg""]",1,1110,2
p73,p20xng64d9m,618,13,654293,"[""G"",""H"",""I""]","[""D"",""H"",""L""]",TRUE,1,"[""<p>Sequence 1</p>"",""stimuli/playground_11.jpg"",""stimuli/bar_29.jpg"",""stimuli/stream_50.jpg""]","[""<p>Sequence 2</p>"",""stimuli/bathroom_36.jpg"",""stimuli/bar_29.jpg"",""stimuli/bridge_48.jpg""]",1,378,1
p73,p20xng64d9m,628,14,663681,"[""G"",""H"",""I""]","[""J"",""B"",""F""]",TRUE,1,"[""<p>Sequence 1</p>"",""stimuli/playground_11.jpg"",""stimuli/bar_29.jpg"",""stimuli/stream_50.jpg""]","[""<p>Sequence 2</p>"",""stimuli/desert_4.jpg"",""stimuli/gym_67.jpg"",""stimuli/coast_42.jpg""]",1,341,1
p73,p20xng64d9m,638,15,673473,"[""J"",""K"",""L""]","[""D"",""H"",""L""]",FALSE,0,"[""<p>Sequence 1</p>"",""stimuli/desert_4.jpg"",""stimuli/woods_26.jpg"",""stimuli/bridge_48.jpg""]","[""<p>Sequence 2</p>"",""stimuli/bathroom_36.jpg"",""stimuli/bar_29.jpg"",""stimuli/bridge_48.jpg""]",2,753,1
p73,p20xng64d9m,648,16,682993,"[""A"",""B"",""C""]","[""G"",""K"",""C""]",TRUE,1,"[""<p>Sequence 1</p>"",""stimuli/playground_11.jpg"",""stimuli/woods_26.jpg"",""stimuli/kitchen_6.jpg""]","[""<p>Sequence 2</p>"",""stimuli/street_66.jpg"",""stimuli/gym_67.jpg"",""stimuli/kitchen_6.jpg""]",2,482,2
tardigrade666,p27z2chwkn6,447,1,495891,"[""G"",""H"",""I""]","[""G"",""K"",""C""]",TRUE,1,"[""<p>Sequence 1</p>"",""stimuli/bridge_21.jpg"",""stimuli/gym_10.jpg"",""stimuli/coast_29.jpg""]","[""<p>Sequence 2</p>"",""stimuli/bridge_21.jpg"",""stimuli/woods_23.jpg"",""stimuli/street_51.jpg""]",1,1166,1
tardigrade666,p27z2chwkn6,457,2,505563,"[""D"",""E"",""F""]","[""D"",""H"",""L""]",TRUE,1,"[""<p>Sequence 1</p>"",""stimuli/bar_63.jpg"",""stimuli/bathroom_50.jpg"",""stimuli/playground_60.jpg""]","[""<p>Sequence 2</p>"",""stimuli/bar_63.jpg"",""stimuli/gym_10.jpg"",""stimuli/stream_16.jpg""]",1,629,1
tardigrade666,p27z2chwkn6,467,3,515221,"[""A"",""B"",""C""]","[""J"",""B"",""F""]",TRUE,1,"[""<p>Sequence 1</p>"",""stimuli/field_12.jpg"",""stimuli/kitchen_63.jpg"",""stimuli/playground_60.jpg""]","[""<p>Sequence 2</p>"",""stimuli/desert_37.jpg"",""stimuli/kitchen_63.jpg"",""stimuli/street_51.jpg""]",2,615,2
tardigrade666,p27z2chwkn6,477,4,524605,"[""J"",""K"",""L""]","[""D"",""H"",""L""]",TRUE,1,"[""<p>Sequence 1</p>"",""stimuli/bar_63.jpg"",""stimuli/gym_10.jpg"",""stimuli/stream_16.jpg""]","[""<p>Sequence 2</p>"",""stimuli/field_12.jpg"",""stimuli/woods_23.jpg"",""stimuli/stream_16.jpg""]",2,343,2
tardigrade666,p27z2chwkn6,487,5,533900,"[""G"",""H"",""I""]","[""J"",""B"",""F""]",TRUE,1,"[""<p>Sequence 1</p>"",""stimuli/field_12.jpg"",""stimuli/kitchen_63.jpg"",""stimuli/playground_60.jpg""]","[""<p>Sequence 2</p>"",""stimuli/bridge_21.jpg"",""stimuli/gym_10.jpg"",""stimuli/coast_29.jpg""]",2,251,2
tardigrade666,p27z2chwkn6,497,6,545523,"[""J"",""K"",""L""]","[""G"",""K"",""C""]",FALSE,0,"[""<p>Sequence 1</p>"",""stimuli/field_12.jpg"",""stimuli/woods_23.jpg"",""stimuli/stream_16.jpg""]","[""<p>Sequence 2</p>"",""stimuli/bridge_21.jpg"",""stimuli/woods_23.jpg"",""stimuli/street_51.jpg""]",2,2581,1
tardigrade666,p27z2chwkn6,507,7,555115,"[""G"",""H"",""I""]","[""A"",""E"",""I""]",TRUE,1,"[""<p>Sequence 1</p>"",""stimuli/desert_37.jpg"",""stimuli/bathroom_50.jpg"",""stimuli/coast_29.jpg""]","[""<p>Sequence 2</p>"",""stimuli/bridge_21.jpg"",""stimuli/gym_10.jpg"",""stimuli/coast_29.jpg""]",2,554,2
tardigrade666,p27z2chwkn6,517,8,564537,"[""A"",""B"",""C""]","[""G"",""K"",""C""]",TRUE,1,"[""<p>Sequence 1</p>"",""stimuli/bridge_21.jpg"",""stimuli/woods_23.jpg"",""stimuli/street_51.jpg""]","[""<p>Sequence 2</p>"",""stimuli/desert_37.jpg"",""stimuli/kitchen_63.jpg"",""stimuli/street_51.jpg""]",2,361,2
tardigrade666,p27z2chwkn6,527,9,573971,"[""A"",""B"",""C""]","[""A"",""E"",""I""]",TRUE,1,"[""<p>Sequence 1</p>"",""stimuli/desert_37.jpg"",""stimuli/kitchen_63.jpg"",""stimuli/street_51.jpg""]","[""<p>Sequence 2</p>"",""stimuli/desert_37.jpg"",""stimuli/bathroom_50.jpg"",""stimuli/coast_29.jpg""]",1,392,1
tardigrade666,p27z2chwkn6,537,10,583133,"[""D"",""E"",""F""]","[""A"",""E"",""I""]",TRUE,1,"[""<p>Sequence 1</p>"",""stimuli/desert_37.jpg"",""stimuli/bathroom_50.jpg"",""stimuli/coast_29.jpg""]","[""<p>Sequence 2</p>"",""stimuli/bar_63.jpg"",""stimuli/bathroom_50.jpg"",""stimuli/playground_60.jpg""]",2,128,2
tardigrade666,p27z2chwkn6,547,11,594549,"[""J"",""K"",""L""]","[""J"",""B"",""F""]",TRUE,1,"[""<p>Sequence 1</p>"",""stimuli/field_12.jpg"",""stimuli/kitchen_63.jpg"",""stimuli/playground_60.jpg""]","[""<p>Sequence 2</p>"",""stimuli/field_12.jpg"",""stimuli/woods_23.jpg"",""stimuli/stream_16.jpg""]",2,2373,2
tardigrade666,p27z2chwkn6,557,12,604243,"[""G"",""H"",""I""]","[""D"",""H"",""L""]",TRUE,1,"[""<p>Sequence 1</p>"",""stimuli/bar_63.jpg"",""stimuli/gym_10.jpg"",""stimuli/stream_16.jpg""]","[""<p>Sequence 2</p>"",""stimuli/bridge_21.jpg"",""stimuli/gym_10.jpg"",""stimuli/coast_29.jpg""]",2,656,2
tardigrade666,p27z2chwkn6,567,13,613701,"[""D"",""E"",""F""]","[""G"",""K"",""C""]",TRUE,1,"[""<p>Sequence 1</p>"",""stimuli/bridge_21.jpg"",""stimuli/woods_23.jpg"",""stimuli/street_51.jpg""]","[""<p>Sequence 2</p>"",""stimuli/bar_63.jpg"",""stimuli/bathroom_50.jpg"",""stimuli/playground_60.jpg""]",2,415,2
tardigrade666,p27z2chwkn6,577,14,623109,"[""A"",""B"",""C""]","[""D"",""H"",""L""]",TRUE,1,"[""<p>Sequence 1</p>"",""stimuli/desert_37.jpg"",""stimuli/kitchen_63.jpg"",""stimuli/street_51.jpg""]","[""<p>Sequence 2</p>"",""stimuli/bar_63.jpg"",""stimuli/gym_10.jpg"",""stimuli/stream_16.jpg""]",1,366,1
tardigrade666,p27z2chwkn6,587,15,632688,"[""J"",""K"",""L""]","[""A"",""E"",""I""]",TRUE,1,"[""<p>Sequence 1</p>"",""stimuli/desert_37.jpg"",""stimuli/bathroom_50.jpg"",""stimuli/coast_29.jpg""]","[""<p>Sequence 2</p>"",""stimuli/field_12.jpg"",""stimuli/woods_23.jpg"",""stimuli/stream_16.jpg""]",2,538,2
tardigrade666,p27z2chwkn6,597,16,643466,"[""D"",""E"",""F""]","[""J"",""B"",""F""]",TRUE,1,"[""<p>Sequence 1</p>"",""stimuli/bar_63.jpg"",""stimuli/bathroom_50.jpg"",""stimuli/playground_60.jpg""]","[""<p>Sequence 2</p>"",""stimuli/field_12.jpg"",""stimuli/kitchen_63.jpg"",""stimuli/playground_60.jpg""]",1,1741,1
eagle,p7elzz0ew7p,495,1,2576886,"[""D"",""E"",""F""]","[""G"",""K"",""C""]",TRUE,1,"[""<p>Sequence 1</p>"",""stimuli/field_41.jpg"",""stimuli/gym_31.jpg"",""stimuli/playground_41.jpg""]","[""<p>Sequence 2</p>"",""stimuli/desert_12.jpg"",""stimuli/bathroom_33.jpg"",""stimuli/woods_27.jpg""]",1,1194,1
eagle,p7elzz0ew7p,505,2,2585937,"[""G"",""H"",""I""]","[""J"",""B"",""F""]",TRUE,1,"[""<p>Sequence 1</p>"",""stimuli/street_33.jpg"",""stimuli/bar_52.jpg"",""stimuli/playground_41.jpg""]","[""<p>Sequence 2</p>"",""stimuli/desert_12.jpg"",""stimuli/kitchen_34.jpg"",""stimuli/stream_59.jpg""]",2,19,2
eagle,p7elzz0ew7p,515,3,2594993,"[""G"",""H"",""I""]","[""D"",""H"",""L""]",TRUE,1,"[""<p>Sequence 1</p>"",""stimuli/desert_12.jpg"",""stimuli/kitchen_34.jpg"",""stimuli/stream_59.jpg""]","[""<p>Sequence 2</p>"",""stimuli/field_41.jpg"",""stimuli/kitchen_34.jpg"",""stimuli/bridge_51.jpg""]",1,21,1
eagle,p7elzz0ew7p,525,4,2609162,"[""G"",""H"",""I""]","[""A"",""E"",""I""]",FALSE,0,"[""<p>Sequence 1</p>"",""stimuli/desert_12.jpg"",""stimuli/kitchen_34.jpg"",""stimuli/stream_59.jpg""]","[""<p>Sequence 2</p>"",""stimuli/coast_59.jpg"",""stimuli/gym_31.jpg"",""stimuli/stream_59.jpg""]",2,5140,1
eagle,p7elzz0ew7p,535,5,2618818,"[""J"",""K"",""L""]","[""A"",""E"",""I""]",FALSE,0,"[""<p>Sequence 1</p>"",""stimuli/street_33.jpg"",""stimuli/bathroom_33.jpg"",""stimuli/bridge_51.jpg""]","[""<p>Sequence 2</p>"",""stimuli/coast_59.jpg"",""stimuli/gym_31.jpg"",""stimuli/stream_59.jpg""]",2,622,1
eagle,p7elzz0ew7p,545,6,2628245,"[""D"",""E"",""F""]","[""A"",""E"",""I""]",FALSE,0,"[""<p>Sequence 1</p>"",""stimuli/coast_59.jpg"",""stimuli/gym_31.jpg"",""stimuli/stream_59.jpg""]","[""<p>Sequence 2</p>"",""stimuli/field_41.jpg"",""stimuli/gym_31.jpg"",""stimuli/playground_41.jpg""]",1,392,2
eagle,p7elzz0ew7p,555,7,2637722,"[""A"",""B"",""C""]","[""J"",""B"",""F""]",FALSE,0,"[""<p>Sequence 1</p>"",""stimuli/street_33.jpg"",""stimuli/bar_52.jpg"",""stimuli/playground_41.jpg""]","[""<p>Sequence 2</p>"",""stimuli/coast_59.jpg"",""stimuli/bar_52.jpg"",""stimuli/woods_27.jpg""]",1,444,2
eagle,p7elzz0ew7p,565,8,2647030,"[""J"",""K"",""L""]","[""G"",""K"",""C""]",TRUE,1,"[""<p>Sequence 1</p>"",""stimuli/street_33.jpg"",""stimuli/bathroom_33.jpg"",""stimuli/bridge_51.jpg""]","[""<p>Sequence 2</p>"",""stimuli/desert_12.jpg"",""stimuli/bathroom_33.jpg"",""stimuli/woods_27.jpg""]",1,279,1
eagle,p7elzz0ew7p,575,9,2656373,"[""A"",""B"",""C""]","[""G"",""K"",""C""]",TRUE,1,"[""<p>Sequence 1</p>"",""stimuli/desert_12.jpg"",""stimuli/bathroom_33.jpg"",""stimuli/woods_27.jpg""]","[""<p>Sequence 2</p>"",""stimuli/coast_59.jpg"",""stimuli/bar_52.jpg"",""stimuli/woods_27.jpg""]",2,308,2
eagle,p7elzz0ew7p,585,10,2666465,"[""J"",""K"",""L""]","[""D"",""H"",""L""]",FALSE,0,"[""<p>Sequence 1</p>"",""stimuli/street_33.jpg"",""stimuli/bathroom_33.jpg"",""stimuli/bridge_51.jpg""]","[""<p>Sequence 2</p>"",""stimuli/field_41.jpg"",""stimuli/kitchen_34.jpg"",""stimuli/bridge_51.jpg""]",2,1055,1
eagle,p7elzz0ew7p,595,11,2676309,"[""D"",""E"",""F""]","[""D"",""H"",""L""]",TRUE,1,"[""<p>Sequence 1</p>"",""stimuli/field_41.jpg"",""stimuli/gym_31.jpg"",""stimuli/playground_41.jpg""]","[""<p>Sequence 2</p>"",""stimuli/field_41.jpg"",""stimuli/kitchen_34.jpg"",""stimuli/bridge_51.jpg""]",1,810,1
eagle,p7elzz0ew7p,605,12,2687383,"[""J"",""K"",""L""]","[""J"",""B"",""F""]",FALSE,0,"[""<p>Sequence 1</p>"",""stimuli/street_33.jpg"",""stimuli/bathroom_33.jpg"",""stimuli/bridge_51.jpg""]","[""<p>Sequence 2</p>"",""stimuli/street_33.jpg"",""stimuli/bar_52.jpg"",""stimuli/playground_41.jpg""]",2,2039,1
eagle,p7elzz0ew7p,615,13,2696779,"[""G"",""H"",""I""]","[""G"",""K"",""C""]",FALSE,0,"[""<p>Sequence 1</p>"",""stimuli/desert_12.jpg"",""stimuli/bathroom_33.jpg"",""stimuli/woods_27.jpg""]","[""<p>Sequence 2</p>"",""stimuli/desert_12.jpg"",""stimuli/kitchen_34.jpg"",""stimuli/stream_59.jpg""]",1,362,2
eagle,p7elzz0ew7p,625,14,2706432,"[""D"",""E"",""F""]","[""J"",""B"",""F""]",TRUE,1,"[""<p>Sequence 1</p>"",""stimuli/field_41.jpg"",""stimuli/gym_31.jpg"",""stimuli/playground_41.jpg""]","[""<p>Sequence 2</p>"",""stimuli/street_33.jpg"",""stimuli/bar_52.jpg"",""stimuli/playground_41.jpg""]",1,619,1
eagle,p7elzz0ew7p,635,15,2715825,"[""A"",""B"",""C""]","[""A"",""E"",""I""]",TRUE,1,"[""<p>Sequence 1</p>"",""stimuli/coast_59.jpg"",""stimuli/gym_31.jpg"",""stimuli/stream_59.jpg""]","[""<p>Sequence 2</p>"",""stimuli/coast_59.jpg"",""stimuli/bar_52.jpg"",""stimuli/woods_27.jpg""]",2,359,2
eagle,p7elzz0ew7p,645,16,2725197,"[""A"",""B"",""C""]","[""D"",""H"",""L""]",TRUE,1,"[""<p>Sequence 1</p>"",""stimuli/coast_59.jpg"",""stimuli/bar_52.jpg"",""stimuli/woods_27.jpg""]","[""<p>Sequence 2</p>"",""stimuli/field_41.jpg"",""stimuli/kitchen_34.jpg"",""stimuli/bridge_51.jpg""]",1,337,1
cheetah,panu1747hap,492,1,620756,"[""G"",""H"",""I""]","[""J"",""B"",""F""]",TRUE,1,"[""<p>Sequence 1</p>"",""stimuli/bar_9.jpg"",""stimuli/gym_51.jpg"",""stimuli/coast_38.jpg""]","[""<p>Sequence 2</p>"",""stimuli/playground_60.jpg"",""stimuli/stream_2.jpg"",""stimuli/bridge_12.jpg""]",2,652,2
cheetah,panu1747hap,502,2,630539,"[""G"",""H"",""I""]","[""G"",""K"",""C""]",TRUE,1,"[""<p>Sequence 1</p>"",""stimuli/playground_60.jpg"",""stimuli/kitchen_46.jpg"",""stimuli/field_43.jpg""]","[""<p>Sequence 2</p>"",""stimuli/playground_60.jpg"",""stimuli/stream_2.jpg"",""stimuli/bridge_12.jpg""]",2,755,2
cheetah,panu1747hap,512,3,640095,"[""A"",""B"",""C""]","[""A"",""E"",""I""]",TRUE,1,"[""<p>Sequence 1</p>"",""stimuli/bathroom_2.jpg"",""stimuli/gym_51.jpg"",""stimuli/field_43.jpg""]","[""<p>Sequence 2</p>"",""stimuli/bathroom_2.jpg"",""stimuli/desert_36.jpg"",""stimuli/bridge_12.jpg""]",1,521,1
cheetah,panu1747hap,522,4,649442,"[""D"",""E"",""F""]","[""J"",""B"",""F""]",TRUE,1,"[""<p>Sequence 1</p>"",""stimuli/woods_21.jpg"",""stimuli/desert_36.jpg"",""stimuli/coast_38.jpg""]","[""<p>Sequence 2</p>"",""stimuli/bar_9.jpg"",""stimuli/gym_51.jpg"",""stimuli/coast_38.jpg""]",1,315,1
cheetah,panu1747hap,532,5,658832,"[""A"",""B"",""C""]","[""J"",""B"",""F""]",TRUE,1,"[""<p>Sequence 1</p>"",""stimuli/bar_9.jpg"",""stimuli/gym_51.jpg"",""stimuli/coast_38.jpg""]","[""<p>Sequence 2</p>"",""stimuli/bathroom_2.jpg"",""stimuli/gym_51.jpg"",""stimuli/field_43.jpg""]",2,356,2
cheetah,panu1747hap,542,6,668117,"[""D"",""E"",""F""]","[""A"",""E"",""I""]",TRUE,1,"[""<p>Sequence 1</p>"",""stimuli/bathroom_2.jpg"",""stimuli/desert_36.jpg"",""stimuli/bridge_12.jpg""]","[""<p>Sequence 2</p>"",""stimuli/woods_21.jpg"",""stimuli/desert_36.jpg"",""stimuli/coast_38.jpg""]",2,251,2
cheetah,panu1747hap,552,7,677461,"[""D"",""E"",""F""]","[""G"",""K"",""C""]",FALSE,0,"[""<p>Sequence 1</p>"",""stimuli/playground_60.jpg"",""stimuli/kitchen_46.jpg"",""stimuli/field_43.jpg""]","[""<p>Sequence 2</p>"",""stimuli/woods_21.jpg"",""stimuli/desert_36.jpg"",""stimuli/coast_38.jpg""]",1,312,2
cheetah,panu1747hap,562,8,686957,"[""A"",""B"",""C""]","[""G"",""K"",""C""]",FALSE,0,"[""<p>Sequence 1</p>"",""stimuli/playground_60.jpg"",""stimuli/kitchen_46.jpg"",""stimuli/field_43.jpg""]","[""<p>Sequence 2</p>"",""stimuli/bathroom_2.jpg"",""stimuli/gym_51.jpg"",""stimuli/field_43.jpg""]",1,465,2
cheetah,panu1747hap,572,9,696289,"[""J"",""K"",""L""]","[""A"",""E"",""I""]",TRUE,1,"[""<p>Sequence 1</p>"",""stimuli/bathroom_2.jpg"",""stimuli/desert_36.jpg"",""stimuli/bridge_12.jpg""]","[""<p>Sequence 2</p>"",""stimuli/bar_9.jpg"",""stimuli/kitchen_46.jpg"",""stimuli/street_47.jpg""]",2,297,2
cheetah,panu1747hap,582,10,705513,"[""D"",""E"",""F""]","[""D"",""H"",""L""]",FALSE,0,"[""<p>Sequence 1</p>"",""stimuli/woods_21.jpg"",""stimuli/desert_36.jpg"",""stimuli/coast_38.jpg""]","[""<p>Sequence 2</p>"",""stimuli/woods_21.jpg"",""stimuli/stream_2.jpg"",""stimuli/street_47.jpg""]",2,194,1
cheetah,panu1747hap,592,11,714781,"[""A"",""B"",""C""]","[""D"",""H"",""L""]",FALSE,0,"[""<p>Sequence 1</p>"",""stimuli/woods_21.jpg"",""stimuli/stream_2.jpg"",""stimuli/street_47.jpg""]","[""<p>Sequence 2</p>"",""stimuli/bathroom_2.jpg"",""stimuli/gym_51.jpg"",""stimuli/field_43.jpg""]",1,235,2
cheetah,panu1747hap,602,12,724071,"[""J"",""K"",""L""]","[""J"",""B"",""F""]",TRUE,1,"[""<p>Sequence 1</p>"",""stimuli/bar_9.jpg"",""stimuli/gym_51.jpg"",""stimuli/coast_38.jpg""]","[""<p>Sequence 2</p>"",""stimuli/bar_9.jpg"",""stimuli/kitchen_46.jpg"",""stimuli/street_47.jpg""]",2,258,2
cheetah,panu1747hap,612,13,733400,"[""J"",""K"",""L""]","[""D"",""H"",""L""]",FALSE,0,"[""<p>Sequence 1</p>"",""stimuli/woods_21.jpg"",""stimuli/stream_2.jpg"",""stimuli/street_47.jpg""]","[""<p>Sequence 2</p>"",""stimuli/bar_9.jpg"",""stimuli/kitchen_46.jpg"",""stimuli/street_47.jpg""]",1,296,2
cheetah,panu1747hap,622,14,742700,"[""G"",""H"",""I""]","[""D"",""H"",""L""]",TRUE,1,"[""<p>Sequence 1</p>"",""stimuli/playground_60.jpg"",""stimuli/stream_2.jpg"",""stimuli/bridge_12.jpg""]","[""<p>Sequence 2</p>"",""stimuli/woods_21.jpg"",""stimuli/stream_2.jpg"",""stimuli/street_47.jpg""]",1,266,1
cheetah,panu1747hap,632,15,751896,"[""G"",""H"",""I""]","[""A"",""E"",""I""]",TRUE,1,"[""<p>Sequence 1</p>"",""stimuli/playground_60.jpg"",""stimuli/stream_2.jpg"",""stimuli/bridge_12.jpg""]","[""<p>Sequence 2</p>"",""stimuli/bathroom_2.jpg"",""stimuli/desert_36.jpg"",""stimuli/bridge_12.jpg""]",1,166,1
cheetah,panu1747hap,642,16,761301,"[""J"",""K"",""L""]","[""G"",""K"",""C""]",FALSE,0,"[""<p>Sequence 1</p>"",""stimuli/bar_9.jpg"",""stimuli/kitchen_46.jpg"",""stimuli/street_47.jpg""]","[""<p>Sequence 2</p>"",""stimuli/playground_60.jpg"",""stimuli/kitchen_46.jpg"",""stimuli/field_43.jpg""]",2,373,1
moose,pbs040o3uvc,459,1,487302,"[""A"",""B"",""C""]","[""J"",""B"",""F""]",TRUE,1,"[""<p>Sequence 1</p>"",""stimuli/bathroom_44.jpg"",""stimuli/street_9.jpg"",""stimuli/gym_26.jpg""]","[""<p>Sequence 2</p>"",""stimuli/playground_4.jpg"",""stimuli/street_9.jpg"",""stimuli/field_52.jpg""]",2,1384,2
moose,pbs040o3uvc,469,2,497076,"[""A"",""B"",""C""]","[""G"",""K"",""C""]",TRUE,1,"[""<p>Sequence 1</p>"",""stimuli/bridge_12.jpg"",""stimuli/stream_20.jpg"",""stimuli/field_52.jpg""]","[""<p>Sequence 2</p>"",""stimuli/playground_4.jpg"",""stimuli/street_9.jpg"",""stimuli/field_52.jpg""]",2,699,2
moose,pbs040o3uvc,479,3,506830,"[""D"",""E"",""F""]","[""D"",""H"",""L""]",TRUE,1,"[""<p>Sequence 1</p>"",""stimuli/bar_4.jpg"",""stimuli/coast_52.jpg"",""stimuli/gym_26.jpg""]","[""<p>Sequence 2</p>"",""stimuli/bar_4.jpg"",""stimuli/kitchen_47.jpg"",""stimuli/desert_28.jpg""]",1,677,1
moose,pbs040o3uvc,489,4,516692,"[""J"",""K"",""L""]","[""G"",""K"",""C""]",FALSE,0,"[""<p>Sequence 1</p>"",""stimuli/bathroom_44.jpg"",""stimuli/stream_20.jpg"",""stimuli/desert_28.jpg""]","[""<p>Sequence 2</p>"",""stimuli/bridge_12.jpg"",""stimuli/stream_20.jpg"",""stimuli/field_52.jpg""]",2,754,1
moose,pbs040o3uvc,499,5,526855,"[""G"",""H"",""I""]","[""G"",""K"",""C""]",TRUE,1,"[""<p>Sequence 1</p>"",""stimuli/bridge_12.jpg"",""stimuli/kitchen_47.jpg"",""stimuli/woods_24.jpg""]","[""<p>Sequence 2</p>"",""stimuli/bridge_12.jpg"",""stimuli/stream_20.jpg"",""stimuli/field_52.jpg""]",1,1078,1
moose,pbs040o3uvc,509,6,537398,"[""A"",""B"",""C""]","[""A"",""E"",""I""]",FALSE,0,"[""<p>Sequence 1</p>"",""stimuli/playground_4.jpg"",""stimuli/coast_52.jpg"",""stimuli/woods_24.jpg""]","[""<p>Sequence 2</p>"",""stimuli/playground_4.jpg"",""stimuli/street_9.jpg"",""stimuli/field_52.jpg""]",1,1465,2
moose,pbs040o3uvc,519,7,548393,"[""D"",""E"",""F""]","[""G"",""K"",""C""]",TRUE,1,"[""<p>Sequence 1</p>"",""stimuli/bridge_12.jpg"",""stimuli/stream_20.jpg"",""stimuli/field_52.jpg""]","[""<p>Sequence 2</p>"",""stimuli/bar_4.jpg"",""stimuli/coast_52.jpg"",""stimuli/gym_26.jpg""]",2,1919,2
moose,pbs040o3uvc,529,8,557762,"[""A"",""B"",""C""]","[""D"",""H"",""L""]",TRUE,1,"[""<p>Sequence 1</p>"",""stimuli/playground_4.jpg"",""stimuli/street_9.jpg"",""stimuli/field_52.jpg""]","[""<p>Sequence 2</p>"",""stimuli/bar_4.jpg"",""stimuli/kitchen_47.jpg"",""stimuli/desert_28.jpg""]",1,274,1
moose,pbs040o3uvc,539,9,567290,"[""G"",""H"",""I""]","[""J"",""B"",""F""]",FALSE,0,"[""<p>Sequence 1</p>"",""stimuli/bridge_12.jpg"",""stimuli/kitchen_47.jpg"",""stimuli/woods_24.jpg""]","[""<p>Sequence 2</p>"",""stimuli/bathroom_44.jpg"",""stimuli/street_9.jpg"",""stimuli/gym_26.jpg""]",2,446,1
moose,pbs040o3uvc,549,10,576988,"[""G"",""H"",""I""]","[""D"",""H"",""L""]",TRUE,1,"[""<p>Sequence 1</p>"",""stimuli/bridge_12.jpg"",""stimuli/kitchen_47.jpg"",""stimuli/woods_24.jpg""]","[""<p>Sequence 2</p>"",""stimuli/bar_4.jpg"",""stimuli/kitchen_47.jpg"",""stimuli/desert_28.jpg""]",1,603,1
moose,pbs040o3uvc,559,11,586346,"[""J"",""K"",""L""]","[""D"",""H"",""L""]",FALSE,0,"[""<p>Sequence 1</p>"",""stimuli/bathroom_44.jpg"",""stimuli/stream_20.jpg"",""stimuli/desert_28.jpg""]","[""<p>Sequence 2</p>"",""stimuli/bar_4.jpg"",""stimuli/kitchen_47.jpg"",""stimuli/desert_28.jpg""]",2,255,1
moose,pbs040o3uvc,569,12,595926,"[""J"",""K"",""L""]","[""J"",""B"",""F""]",TRUE,1,"[""<p>Sequence 1</p>"",""stimuli/bathroom_44.jpg"",""stimuli/stream_20.jpg"",""stimuli/desert_28.jpg""]","[""<p>Sequence 2</p>"",""stimuli/bathroom_44.jpg"",""stimuli/street_9.jpg"",""stimuli/gym_26.jpg""]",1,476,1
moose,pbs040o3uvc,579,13,605656,"[""D"",""E"",""F""]","[""J"",""B"",""F""]",FALSE,0,"[""<p>Sequence 1</p>"",""stimuli/bar_4.jpg"",""stimuli/coast_52.jpg"",""stimuli/gym_26.jpg""]","[""<p>Sequence 2</p>"",""stimuli/bathroom_44.jpg"",""stimuli/street_9.jpg"",""stimuli/gym_26.jpg""]",2,633,1
moose,pbs040o3uvc,589,14,616514,"[""D"",""E"",""F""]","[""A"",""E"",""I""]",TRUE,1,"[""<p>Sequence 1</p>"",""stimuli/bar_4.jpg"",""stimuli/coast_52.jpg"",""stimuli/gym_26.jpg""]","[""<p>Sequence 2</p>"",""stimuli/playground_4.jpg"",""stimuli/coast_52.jpg"",""stimuli/woods_24.jpg""]",1,1759,1
moose,pbs040o3uvc,599,15,626623,"[""J"",""K"",""L""]","[""A"",""E"",""I""]",FALSE,0,"[""<p>Sequence 1</p>"",""stimuli/playground_4.jpg"",""stimuli/coast_52.jpg"",""stimuli/woods_24.jpg""]","[""<p>Sequence 2</p>"",""stimuli/bathroom_44.jpg"",""stimuli/stream_20.jpg"",""stimuli/desert_28.jpg""]",1,1027,2
moose,pbs040o3uvc,609,16,636010,"[""G"",""H"",""I""]","[""A"",""E"",""I""]",FALSE,0,"[""<p>Sequence 1</p>"",""stimuli/bridge_12.jpg"",""stimuli/kitchen_47.jpg"",""stimuli/woods_24.jpg""]","[""<p>Sequence 2</p>"",""stimuli/playground_4.jpg"",""stimuli/coast_52.jpg"",""stimuli/woods_24.jpg""]",2,313,1
camel,pbtb0o7fkvk,477,1,491760,"[""A"",""B"",""C""]","[""A"",""E"",""I""]",FALSE,0,"[""<p>Sequence 1</p>"",""stimuli/woods_42.jpg"",""stimuli/bar_10.jpg"",""stimuli/bathroom_63.jpg""]","[""<p>Sequence 2</p>"",""stimuli/woods_42.jpg"",""stimuli/street_56.jpg"",""stimuli/playground_23.jpg""]",2,1894,1
camel,pbtb0o7fkvk,487,2,501141,"[""A"",""B"",""C""]","[""D"",""H"",""L""]",TRUE,1,"[""<p>Sequence 1</p>"",""stimuli/woods_42.jpg"",""stimuli/bar_10.jpg"",""stimuli/bathroom_63.jpg""]","[""<p>Sequence 2</p>"",""stimuli/kitchen_29.jpg"",""stimuli/field_18.jpg"",""stimuli/desert_63.jpg""]",1,293,1
camel,pbtb0o7fkvk,497,3,510646,"[""A"",""B"",""C""]","[""G"",""K"",""C""]",TRUE,1,"[""<p>Sequence 1</p>"",""stimuli/bridge_55.jpg"",""stimuli/coast_64.jpg"",""stimuli/bathroom_63.jpg""]","[""<p>Sequence 2</p>"",""stimuli/woods_42.jpg"",""stimuli/bar_10.jpg"",""stimuli/bathroom_63.jpg""]",2,398,2
camel,pbtb0o7fkvk,507,4,519997,"[""A"",""B"",""C""]","[""J"",""B"",""F""]",TRUE,1,"[""<p>Sequence 1</p>"",""stimuli/woods_42.jpg"",""stimuli/bar_10.jpg"",""stimuli/bathroom_63.jpg""]","[""<p>Sequence 2</p>"",""stimuli/gym_24.jpg"",""stimuli/bar_10.jpg"",""stimuli/stream_45.jpg""]",1,268,1
camel,pbtb0o7fkvk,517,5,529898,"[""D"",""E"",""F""]","[""A"",""E"",""I""]",TRUE,1,"[""<p>Sequence 1</p>"",""stimuli/woods_42.jpg"",""stimuli/street_56.jpg"",""stimuli/playground_23.jpg""]","[""<p>Sequence 2</p>"",""stimuli/kitchen_29.jpg"",""stimuli/street_56.jpg"",""stimuli/stream_45.jpg""]",2,767,2
camel,pbtb0o7fkvk,527,6,539696,"[""D"",""E"",""F""]","[""D"",""H"",""L""]",TRUE,1,"[""<p>Sequence 1</p>"",""stimuli/kitchen_29.jpg"",""stimuli/street_56.jpg"",""stimuli/stream_45.jpg""]","[""<p>Sequence 2</p>"",""stimuli/kitchen_29.jpg"",""stimuli/field_18.jpg"",""stimuli/desert_63.jpg""]",1,714,1
camel,pbtb0o7fkvk,537,7,549405,"[""D"",""E"",""F""]","[""G"",""K"",""C""]",TRUE,1,"[""<p>Sequence 1</p>"",""stimuli/kitchen_29.jpg"",""stimuli/street_56.jpg"",""stimuli/stream_45.jpg""]","[""<p>Sequence 2</p>"",""stimuli/bridge_55.jpg"",""stimuli/coast_64.jpg"",""stimuli/bathroom_63.jpg""]",1,384,1
camel,pbtb0o7fkvk,547,8,558891,"[""D"",""E"",""F""]","[""J"",""B"",""F""]",TRUE,1,"[""<p>Sequence 1</p>"",""stimuli/kitchen_29.jpg"",""stimuli/street_56.jpg"",""stimuli/stream_45.jpg""]","[""<p>Sequence 2</p>"",""stimuli/gym_24.jpg"",""stimuli/bar_10.jpg"",""stimuli/stream_45.jpg""]",1,339,1
camel,pbtb0o7fkvk,557,9,568494,"[""G"",""H"",""I""]","[""A"",""E"",""I""]",TRUE,1,"[""<p>Sequence 1</p>"",""stimuli/bridge_55.jpg"",""stimuli/field_18.jpg"",""stimuli/playground_23.jpg""]","[""<p>Sequence 2</p>"",""stimuli/woods_42.jpg"",""stimuli/street_56.jpg"",""stimuli/playground_23.jpg""]",1,521,1
camel,pbtb0o7fkvk,567,10,578153,"[""G"",""H"",""I""]","[""D"",""H"",""L""]",TRUE,1,"[""<p>Sequence 1</p>"",""stimuli/bridge_55.jpg"",""stimuli/field_18.jpg"",""stimuli/playground_23.jpg""]","[""<p>Sequence 2</p>"",""stimuli/kitchen_29.jpg"",""stimuli/field_18.jpg"",""stimuli/desert_63.jpg""]",1,458,1
camel,pbtb0o7fkvk,577,11,587511,"[""G"",""H"",""I""]","[""G"",""K"",""C""]",TRUE,1,"[""<p>Sequence 1</p>"",""stimuli/bridge_55.jpg"",""stimuli/coast_64.jpg"",""stimuli/bathroom_63.jpg""]","[""<p>Sequence 2</p>"",""stimuli/bridge_55.jpg"",""stimuli/field_18.jpg"",""stimuli/playground_23.jpg""]",2,244,2
camel,pbtb0o7fkvk,587,12,596880,"[""G"",""H"",""I""]","[""J"",""B"",""F""]",TRUE,1,"[""<p>Sequence 1</p>"",""stimuli/bridge_55.jpg"",""stimuli/field_18.jpg"",""stimuli/playground_23.jpg""]","[""<p>Sequence 2</p>"",""stimuli/gym_24.jpg"",""stimuli/bar_10.jpg"",""stimuli/stream_45.jpg""]",1,259,1
camel,pbtb0o7fkvk,597,13,606238,"[""J"",""K"",""L""]","[""A"",""E"",""I""]",TRUE,1,"[""<p>Sequence 1</p>"",""stimuli/gym_24.jpg"",""stimuli/coast_64.jpg"",""stimuli/desert_63.jpg""]","[""<p>Sequence 2</p>"",""stimuli/woods_42.jpg"",""stimuli/street_56.jpg"",""stimuli/playground_23.jpg""]",1,267,1
camel,pbtb0o7fkvk,607,14,616549,"[""J"",""K"",""L""]","[""D"",""H"",""L""]",TRUE,1,"[""<p>Sequence 1</p>"",""stimuli/gym_24.jpg"",""stimuli/coast_64.jpg"",""stimuli/desert_63.jpg""]","[""<p>Sequence 2</p>"",""stimuli/kitchen_29.jpg"",""stimuli/field_18.jpg"",""stimuli/desert_63.jpg""]",1,1252,1
camel,pbtb0o7fkvk,617,15,626314,"[""J"",""K"",""L""]","[""G"",""K"",""C""]",TRUE,1,"[""<p>Sequence 1</p>"",""stimuli/bridge_55.jpg"",""stimuli/coast_64.jpg"",""stimuli/bathroom_63.jpg""]","[""<p>Sequence 2</p>"",""stimuli/gym_24.jpg"",""stimuli/coast_64.jpg"",""stimuli/desert_63.jpg""]",2,682,2
camel,pbtb0o7fkvk,627,16,635597,"[""J"",""K"",""L""]","[""J"",""B"",""F""]",TRUE,1,"[""<p>Sequence 1</p>"",""stimuli/gym_24.jpg"",""stimuli/bar_10.jpg"",""stimuli/stream_45.jpg""]","[""<p>Sequence 2</p>"",""stimuli/gym_24.jpg"",""stimuli/coast_64.jpg"",""stimuli/desert_63.jpg""]",2,162,2
leopard,peefa9q8jxy,483,1,546432,"[""A"",""B"",""C""]","[""A"",""E"",""I""]",FALSE,0,"[""<p>Sequence 1</p>"",""stimuli/field_32.jpg"",""stimuli/playground_14.jpg"",""stimuli/coast_58.jpg""]","[""<p>Sequence 2</p>"",""stimuli/field_32.jpg"",""stimuli/street_15.jpg"",""stimuli/gym_68.jpg""]",1,2916,2
leopard,peefa9q8jxy,493,2,558969,"[""A"",""B"",""C""]","[""D"",""H"",""L""]",TRUE,1,"[""<p>Sequence 1</p>"",""stimuli/field_32.jpg"",""stimuli/street_15.jpg"",""stimuli/gym_68.jpg""]","[""<p>Sequence 2</p>"",""stimuli/stream_57.jpg"",""stimuli/bathroom_63.jpg"",""stimuli/desert_6.jpg""]",1,3490,1
leopard,peefa9q8jxy,503,3,568794,"[""A"",""B"",""C""]","[""G"",""K"",""C""]",TRUE,1,"[""<p>Sequence 1</p>"",""stimuli/bar_53.jpg"",""stimuli/kitchen_36.jpg"",""stimuli/gym_68.jpg""]","[""<p>Sequence 2</p>"",""stimuli/field_32.jpg"",""stimuli/street_15.jpg"",""stimuli/gym_68.jpg""]",2,757,2
leopard,peefa9q8jxy,513,4,578295,"[""A"",""B"",""C""]","[""J"",""B"",""F""]",TRUE,1,"[""<p>Sequence 1</p>"",""stimuli/bridge_55.jpg"",""stimuli/street_15.jpg"",""stimuli/woods_46.jpg""]","[""<p>Sequence 2</p>"",""stimuli/field_32.jpg"",""stimuli/street_15.jpg"",""stimuli/gym_68.jpg""]",2,434,2
leopard,peefa9q8jxy,523,5,587863,"[""D"",""E"",""F""]","[""A"",""E"",""I""]",TRUE,1,"[""<p>Sequence 1</p>"",""stimuli/stream_57.jpg"",""stimuli/playground_14.jpg"",""stimuli/woods_46.jpg""]","[""<p>Sequence 2</p>"",""stimuli/field_32.jpg"",""stimuli/playground_14.jpg"",""stimuli/coast_58.jpg""]",1,519,1
leopard,peefa9q8jxy,533,6,598262,"[""D"",""E"",""F""]","[""D"",""H"",""L""]",TRUE,1,"[""<p>Sequence 1</p>"",""stimuli/stream_57.jpg"",""stimuli/playground_14.jpg"",""stimuli/woods_46.jpg""]","[""<p>Sequence 2</p>"",""stimuli/stream_57.jpg"",""stimuli/bathroom_63.jpg"",""stimuli/desert_6.jpg""]",1,1359,1
leopard,peefa9q8jxy,543,7,607707,"[""D"",""E"",""F""]","[""G"",""K"",""C""]",TRUE,1,"[""<p>Sequence 1</p>"",""stimuli/stream_57.jpg"",""stimuli/playground_14.jpg"",""stimuli/woods_46.jpg""]","[""<p>Sequence 2</p>"",""stimuli/bar_53.jpg"",""stimuli/kitchen_36.jpg"",""stimuli/gym_68.jpg""]",1,419,1
leopard,peefa9q8jxy,553,8,617337,"[""D"",""E"",""F""]","[""J"",""B"",""F""]",TRUE,1,"[""<p>Sequence 1</p>"",""stimuli/stream_57.jpg"",""stimuli/playground_14.jpg"",""stimuli/woods_46.jpg""]","[""<p>Sequence 2</p>"",""stimuli/bridge_55.jpg"",""stimuli/street_15.jpg"",""stimuli/woods_46.jpg""]",1,592,1
leopard,peefa9q8jxy,563,9,627357,"[""G"",""H"",""I""]","[""A"",""E"",""I""]",TRUE,1,"[""<p>Sequence 1</p>"",""stimuli/field_32.jpg"",""stimuli/playground_14.jpg"",""stimuli/coast_58.jpg""]","[""<p>Sequence 2</p>"",""stimuli/bar_53.jpg"",""stimuli/bathroom_63.jpg"",""stimuli/coast_58.jpg""]",2,949,2
leopard,peefa9q8jxy,573,10,638049,"[""G"",""H"",""I""]","[""D"",""H"",""L""]",TRUE,1,"[""<p>Sequence 1</p>"",""stimuli/stream_57.jpg"",""stimuli/bathroom_63.jpg"",""stimuli/desert_6.jpg""]","[""<p>Sequence 2</p>"",""stimuli/bar_53.jpg"",""stimuli/bathroom_63.jpg"",""stimuli/coast_58.jpg""]",2,1639,2
leopard,peefa9q8jxy,583,11,647437,"[""G"",""H"",""I""]","[""G"",""K"",""C""]",FALSE,0,"[""<p>Sequence 1</p>"",""stimuli/bar_53.jpg"",""stimuli/bathroom_63.jpg"",""stimuli/coast_58.jpg""]","[""<p>Sequence 2</p>"",""stimuli/bar_53.jpg"",""stimuli/kitchen_36.jpg"",""stimuli/gym_68.jpg""]",2,340,1
leopard,peefa9q8jxy,593,12,656787,"[""G"",""H"",""I""]","[""J"",""B"",""F""]",FALSE,0,"[""<p>Sequence 1</p>"",""stimuli/bridge_55.jpg"",""stimuli/street_15.jpg"",""stimuli/woods_46.jpg""]","[""<p>Sequence 2</p>"",""stimuli/bar_53.jpg"",""stimuli/bathroom_63.jpg"",""stimuli/coast_58.jpg""]",1,301,2
leopard,peefa9q8jxy,603,13,666093,"[""J"",""K"",""L""]","[""A"",""E"",""I""]",FALSE,0,"[""<p>Sequence 1</p>"",""stimuli/bridge_55.jpg"",""stimuli/kitchen_36.jpg"",""stimuli/desert_6.jpg""]","[""<p>Sequence 2</p>"",""stimuli/field_32.jpg"",""stimuli/playground_14.jpg"",""stimuli/coast_58.jpg""]",2,245,1
leopard,peefa9q8jxy,613,14,675452,"[""J"",""K"",""L""]","[""D"",""H"",""L""]",FALSE,0,"[""<p>Sequence 1</p>"",""stimuli/bridge_55.jpg"",""stimuli/kitchen_36.jpg"",""stimuli/desert_6.jpg""]","[""<p>Sequence 2</p>"",""stimuli/stream_57.jpg"",""stimuli/bathroom_63.jpg"",""stimuli/desert_6.jpg""]",2,312,1
leopard,peefa9q8jxy,623,15,684778,"[""J"",""K"",""L""]","[""G"",""K"",""C""]",FALSE,0,"[""<p>Sequence 1</p>"",""stimuli/bar_53.jpg"",""stimuli/kitchen_36.jpg"",""stimuli/gym_68.jpg""]","[""<p>Sequence 2</p>"",""stimuli/bridge_55.jpg"",""stimuli/kitchen_36.jpg"",""stimuli/desert_6.jpg""]",1,273,2
leopard,peefa9q8jxy,633,16,694144,"[""J"",""K"",""L""]","[""J"",""B"",""F""]",FALSE,0,"[""<p>Sequence 1</p>"",""stimuli/bridge_55.jpg"",""stimuli/kitchen_36.jpg"",""stimuli/desert_6.jpg""]","[""<p>Sequence 2</p>"",""stimuli/bridge_55.jpg"",""stimuli/street_15.jpg"",""stimuli/woods_46.jpg""]",2,336,1
hedgehog,pezx9btl65e,456,1,478960,"[""A"",""B"",""C""]","[""G"",""K"",""C""]",TRUE,1,"[""<p>Sequence 1</p>"",""stimuli/bar_44.jpg"",""stimuli/playground_37.jpg"",""stimuli/gym_18.jpg""]","[""<p>Sequence 2</p>"",""stimuli/street_31.jpg"",""stimuli/coast_63.jpg"",""stimuli/gym_18.jpg""]",2,915,2
hedgehog,pezx9btl65e,466,2,488336,"[""G"",""H"",""I""]","[""A"",""E"",""I""]",TRUE,1,"[""<p>Sequence 1</p>"",""stimuli/bar_44.jpg"",""stimuli/bathroom_50.jpg"",""stimuli/bridge_16.jpg""]","[""<p>Sequence 2</p>"",""stimuli/street_31.jpg"",""stimuli/desert_46.jpg"",""stimuli/bridge_16.jpg""]",1,287,1
hedgehog,pezx9btl65e,476,3,498160,"[""D"",""E"",""F""]","[""J"",""B"",""F""]",TRUE,1,"[""<p>Sequence 1</p>"",""stimuli/field_26.jpg"",""stimuli/desert_46.jpg"",""stimuli/woods_16.jpg""]","[""<p>Sequence 2</p>"",""stimuli/kitchen_43.jpg"",""stimuli/coast_63.jpg"",""stimuli/woods_16.jpg""]",1,726,1
hedgehog,pezx9btl65e,486,4,507616,"[""A"",""B"",""C""]","[""D"",""H"",""L""]",TRUE,1,"[""<p>Sequence 1</p>"",""stimuli/street_31.jpg"",""stimuli/coast_63.jpg"",""stimuli/gym_18.jpg""]","[""<p>Sequence 2</p>"",""stimuli/field_26.jpg"",""stimuli/bathroom_50.jpg"",""stimuli/stream_35.jpg""]",1,351,1
hedgehog,pezx9btl65e,496,5,516935,"[""D"",""E"",""F""]","[""A"",""E"",""I""]",TRUE,1,"[""<p>Sequence 1</p>"",""stimuli/street_31.jpg"",""stimuli/desert_46.jpg"",""stimuli/bridge_16.jpg""]","[""<p>Sequence 2</p>"",""stimuli/field_26.jpg"",""stimuli/desert_46.jpg"",""stimuli/woods_16.jpg""]",2,205,2
hedgehog,pezx9btl65e,506,6,526272,"[""A"",""B"",""C""]","[""A"",""E"",""I""]",TRUE,1,"[""<p>Sequence 1</p>"",""stimuli/street_31.jpg"",""stimuli/desert_46.jpg"",""stimuli/bridge_16.jpg""]","[""<p>Sequence 2</p>"",""stimuli/street_31.jpg"",""stimuli/coast_63.jpg"",""stimuli/gym_18.jpg""]",2,236,2
hedgehog,pezx9btl65e,516,7,535568,"[""A"",""B"",""C""]","[""J"",""B"",""F""]",TRUE,1,"[""<p>Sequence 1</p>"",""stimuli/kitchen_43.jpg"",""stimuli/coast_63.jpg"",""stimuli/woods_16.jpg""]","[""<p>Sequence 2</p>"",""stimuli/street_31.jpg"",""stimuli/coast_63.jpg"",""stimuli/gym_18.jpg""]",2,205,2
hedgehog,pezx9btl65e,526,8,545665,"[""J"",""K"",""L""]","[""D"",""H"",""L""]",TRUE,1,"[""<p>Sequence 1</p>"",""stimuli/field_26.jpg"",""stimuli/bathroom_50.jpg"",""stimuli/stream_35.jpg""]","[""<p>Sequence 2</p>"",""stimuli/kitchen_43.jpg"",""stimuli/playground_37.jpg"",""stimuli/stream_35.jpg""]",2,998,2
hedgehog,pezx9btl65e,536,9,555024,"[""G"",""H"",""I""]","[""G"",""K"",""C""]",TRUE,1,"[""<p>Sequence 1</p>"",""stimuli/bar_44.jpg"",""stimuli/playground_37.jpg"",""stimuli/gym_18.jpg""]","[""<p>Sequence 2</p>"",""stimuli/bar_44.jpg"",""stimuli/bathroom_50.jpg"",""stimuli/bridge_16.jpg""]",2,248,2
hedgehog,pezx9btl65e,546,10,564512,"[""J"",""K"",""L""]","[""A"",""E"",""I""]",FALSE,0,"[""<p>Sequence 1</p>"",""stimuli/kitchen_43.jpg"",""stimuli/playground_37.jpg"",""stimuli/stream_35.jpg""]","[""<p>Sequence 2</p>"",""stimuli/street_31.jpg"",""stimuli/desert_46.jpg"",""stimuli/bridge_16.jpg""]",2,377,1
hedgehog,pezx9btl65e,556,11,577360,"[""D"",""E"",""F""]","[""D"",""H"",""L""]",TRUE,1,"[""<p>Sequence 1</p>"",""stimuli/field_26.jpg"",""stimuli/desert_46.jpg"",""stimuli/woods_16.jpg""]","[""<p>Sequence 2</p>"",""stimuli/field_26.jpg"",""stimuli/bathroom_50.jpg"",""stimuli/stream_35.jpg""]",1,3738,1
hedgehog,pezx9btl65e,566,12,587367,"[""J"",""K"",""L""]","[""G"",""K"",""C""]",TRUE,1,"[""<p>Sequence 1</p>"",""stimuli/bar_44.jpg"",""stimuli/playground_37.jpg"",""stimuli/gym_18.jpg""]","[""<p>Sequence 2</p>"",""stimuli/kitchen_43.jpg"",""stimuli/playground_37.jpg"",""stimuli/stream_35.jpg""]",2,898,2
hedgehog,pezx9btl65e,576,13,596616,"[""G"",""H"",""I""]","[""J"",""B"",""F""]",TRUE,1,"[""<p>Sequence 1</p>"",""stimuli/bar_44.jpg"",""stimuli/bathroom_50.jpg"",""stimuli/bridge_16.jpg""]","[""<p>Sequence 2</p>"",""stimuli/kitchen_43.jpg"",""stimuli/coast_63.jpg"",""stimuli/woods_16.jpg""]",1,130,1
hedgehog,pezx9btl65e,586,14,605944,"[""G"",""H"",""I""]","[""D"",""H"",""L""]",TRUE,1,"[""<p>Sequence 1</p>"",""stimuli/field_26.jpg"",""stimuli/bathroom_50.jpg"",""stimuli/stream_35.jpg""]","[""<p>Sequence 2</p>"",""stimuli/bar_44.jpg"",""stimuli/bathroom_50.jpg"",""stimuli/bridge_16.jpg""]",2,236,2
hedgehog,pezx9btl65e,596,15,615903,"[""D"",""E"",""F""]","[""G"",""K"",""C""]",TRUE,1,"[""<p>Sequence 1</p>"",""stimuli/field_26.jpg"",""stimuli/desert_46.jpg"",""stimuli/woods_16.jpg""]","[""<p>Sequence 2</p>"",""stimuli/bar_44.jpg"",""stimuli/playground_37.jpg"",""stimuli/gym_18.jpg""]",1,854,1
hedgehog,pezx9btl65e,606,16,625280,"[""J"",""K"",""L""]","[""J"",""B"",""F""]",FALSE,0,"[""<p>Sequence 1</p>"",""stimuli/kitchen_43.jpg"",""stimuli/coast_63.jpg"",""stimuli/woods_16.jpg""]","[""<p>Sequence 2</p>"",""stimuli/kitchen_43.jpg"",""stimuli/playground_37.jpg"",""stimuli/stream_35.jpg""]",1,263,2
tiger,pgo4a3w2130,504,1,533073,"[""D"",""E"",""F""]","[""J"",""B"",""F""]",TRUE,1,"[""<p>Sequence 1</p>"",""stimuli/stream_46.jpg"",""stimuli/field_54.jpg"",""stimuli/woods_58.jpg""]","[""<p>Sequence 2</p>"",""stimuli/playground_6.jpg"",""stimuli/street_58.jpg"",""stimuli/woods_58.jpg""]",1,1372,1
tiger,pgo4a3w2130,514,2,542567,"[""G"",""H"",""I""]","[""D"",""H"",""L""]",TRUE,1,"[""<p>Sequence 1</p>"",""stimuli/stream_46.jpg"",""stimuli/kitchen_15.jpg"",""stimuli/coast_57.jpg""]","[""<p>Sequence 2</p>"",""stimuli/bathroom_11.jpg"",""stimuli/kitchen_15.jpg"",""stimuli/bar_67.jpg""]",2,408,2
tiger,pgo4a3w2130,524,3,552361,"[""G"",""H"",""I""]","[""J"",""B"",""F""]",TRUE,1,"[""<p>Sequence 1</p>"",""stimuli/playground_6.jpg"",""stimuli/street_58.jpg"",""stimuli/woods_58.jpg""]","[""<p>Sequence 2</p>"",""stimuli/bathroom_11.jpg"",""stimuli/kitchen_15.jpg"",""stimuli/bar_67.jpg""]",2,700,2
tiger,pgo4a3w2130,534,4,561749,"[""G"",""H"",""I""]","[""G"",""K"",""C""]",TRUE,1,"[""<p>Sequence 1</p>"",""stimuli/bathroom_11.jpg"",""stimuli/desert_17.jpg"",""stimuli/gym_53.jpg""]","[""<p>Sequence 2</p>"",""stimuli/bathroom_11.jpg"",""stimuli/kitchen_15.jpg"",""stimuli/bar_67.jpg""]",2,278,2
tiger,pgo4a3w2130,544,5,571261,"[""J"",""K"",""L""]","[""D"",""H"",""L""]",TRUE,1,"[""<p>Sequence 1</p>"",""stimuli/stream_46.jpg"",""stimuli/kitchen_15.jpg"",""stimuli/coast_57.jpg""]","[""<p>Sequence 2</p>"",""stimuli/playground_6.jpg"",""stimuli/desert_17.jpg"",""stimuli/coast_57.jpg""]",2,416,2
tiger,pgo4a3w2130,554,6,580634,"[""A"",""B"",""C""]","[""A"",""E"",""I""]",TRUE,1,"[""<p>Sequence 1</p>"",""stimuli/bridge_36.jpg"",""stimuli/field_54.jpg"",""stimuli/bar_67.jpg""]","[""<p>Sequence 2</p>"",""stimuli/bridge_36.jpg"",""stimuli/street_58.jpg"",""stimuli/gym_53.jpg""]",2,301,2
tiger,pgo4a3w2130,564,7,590030,"[""J"",""K"",""L""]","[""G"",""K"",""C""]",TRUE,1,"[""<p>Sequence 1</p>"",""stimuli/bathroom_11.jpg"",""stimuli/desert_17.jpg"",""stimuli/gym_53.jpg""]","[""<p>Sequence 2</p>"",""stimuli/playground_6.jpg"",""stimuli/desert_17.jpg"",""stimuli/coast_57.jpg""]",2,288,2
tiger,pgo4a3w2130,574,8,599450,"[""A"",""B"",""C""]","[""J"",""B"",""F""]",TRUE,1,"[""<p>Sequence 1</p>"",""stimuli/bridge_36.jpg"",""stimuli/street_58.jpg"",""stimuli/gym_53.jpg""]","[""<p>Sequence 2</p>"",""stimuli/playground_6.jpg"",""stimuli/street_58.jpg"",""stimuli/woods_58.jpg""]",1,317,1
tiger,pgo4a3w2130,584,9,608961,"[""D"",""E"",""F""]","[""G"",""K"",""C""]",TRUE,1,"[""<p>Sequence 1</p>"",""stimuli/bathroom_11.jpg"",""stimuli/desert_17.jpg"",""stimuli/gym_53.jpg""]","[""<p>Sequence 2</p>"",""stimuli/stream_46.jpg"",""stimuli/field_54.jpg"",""stimuli/woods_58.jpg""]",2,404,2
tiger,pgo4a3w2130,594,10,618337,"[""J"",""K"",""L""]","[""J"",""B"",""F""]",TRUE,1,"[""<p>Sequence 1</p>"",""stimuli/playground_6.jpg"",""stimuli/street_58.jpg"",""stimuli/woods_58.jpg""]","[""<p>Sequence 2</p>"",""stimuli/playground_6.jpg"",""stimuli/desert_17.jpg"",""stimuli/coast_57.jpg""]",2,271,2
tiger,pgo4a3w2130,604,11,627533,"[""J"",""K"",""L""]","[""A"",""E"",""I""]",TRUE,1,"[""<p>Sequence 1</p>"",""stimuli/bridge_36.jpg"",""stimuli/field_54.jpg"",""stimuli/bar_67.jpg""]","[""<p>Sequence 2</p>"",""stimuli/playground_6.jpg"",""stimuli/desert_17.jpg"",""stimuli/coast_57.jpg""]",2,86,2
tiger,pgo4a3w2130,614,12,636721,"[""A"",""B"",""C""]","[""G"",""K"",""C""]",TRUE,1,"[""<p>Sequence 1</p>"",""stimuli/bathroom_11.jpg"",""stimuli/desert_17.jpg"",""stimuli/gym_53.jpg""]","[""<p>Sequence 2</p>"",""stimuli/bridge_36.jpg"",""stimuli/street_58.jpg"",""stimuli/gym_53.jpg""]",2,90,2
tiger,pgo4a3w2130,624,13,646209,"[""G"",""H"",""I""]","[""A"",""E"",""I""]",TRUE,1,"[""<p>Sequence 1</p>"",""stimuli/bathroom_11.jpg"",""stimuli/kitchen_15.jpg"",""stimuli/bar_67.jpg""]","[""<p>Sequence 2</p>"",""stimuli/bridge_36.jpg"",""stimuli/field_54.jpg"",""stimuli/bar_67.jpg""]",1,384,1
tiger,pgo4a3w2130,634,14,655977,"[""D"",""E"",""F""]","[""A"",""E"",""I""]",TRUE,1,"[""<p>Sequence 1</p>"",""stimuli/stream_46.jpg"",""stimuli/field_54.jpg"",""stimuli/woods_58.jpg""]","[""<p>Sequence 2</p>"",""stimuli/bridge_36.jpg"",""stimuli/field_54.jpg"",""stimuli/bar_67.jpg""]",1,641,1
tiger,pgo4a3w2130,644,15,665088,"[""D"",""E"",""F""]","[""D"",""H"",""L""]",TRUE,1,"[""<p>Sequence 1</p>"",""stimuli/stream_46.jpg"",""stimuli/field_54.jpg"",""stimuli/woods_58.jpg""]","[""<p>Sequence 2</p>"",""stimuli/stream_46.jpg"",""stimuli/kitchen_15.jpg"",""stimuli/coast_57.jpg""]",1,25,1
tiger,pgo4a3w2130,654,16,674428,"[""A"",""B"",""C""]","[""D"",""H"",""L""]",TRUE,1,"[""<p>Sequence 1</p>"",""stimuli/stream_46.jpg"",""stimuli/kitchen_15.jpg"",""stimuli/coast_57.jpg""]","[""<p>Sequence 2</p>"",""stimuli/bridge_36.jpg"",""stimuli/street_58.jpg"",""stimuli/gym_53.jpg""]",2,256,2
gazelle,phkpn02qx0l,492,1,508053,"[""G"",""H"",""I""]","[""G"",""K"",""C""]",TRUE,1,"[""<p>Sequence 1</p>"",""stimuli/playground_61.jpg"",""stimuli/gym_9.jpg"",""stimuli/kitchen_5.jpg""]","[""<p>Sequence 2</p>"",""stimuli/playground_61.jpg"",""stimuli/woods_35.jpg"",""stimuli/bar_67.jpg""]",1,1307,1
gazelle,phkpn02qx0l,502,2,517459,"[""A"",""B"",""C""]","[""J"",""B"",""F""]",TRUE,1,"[""<p>Sequence 1</p>"",""stimuli/coast_56.jpg"",""stimuli/stream_63.jpg"",""stimuli/bar_67.jpg""]","[""<p>Sequence 2</p>"",""stimuli/street_56.jpg"",""stimuli/stream_63.jpg"",""stimuli/bathroom_30.jpg""]",1,373,1
gazelle,phkpn02qx0l,512,3,526936,"[""J"",""K"",""L""]","[""J"",""B"",""F""]",FALSE,0,"[""<p>Sequence 1</p>"",""stimuli/street_56.jpg"",""stimuli/stream_63.jpg"",""stimuli/bathroom_30.jpg""]","[""<p>Sequence 2</p>"",""stimuli/street_56.jpg"",""stimuli/woods_35.jpg"",""stimuli/field_68.jpg""]",1,440,2
gazelle,phkpn02qx0l,522,4,537253,"[""D"",""E"",""F""]","[""J"",""B"",""F""]",FALSE,0,"[""<p>Sequence 1</p>"",""stimuli/street_56.jpg"",""stimuli/stream_63.jpg"",""stimuli/bathroom_30.jpg""]","[""<p>Sequence 2</p>"",""stimuli/bridge_43.jpg"",""stimuli/desert_11.jpg"",""stimuli/bathroom_30.jpg""]",1,1285,2
gazelle,phkpn02qx0l,532,5,546311,"[""A"",""B"",""C""]","[""D"",""H"",""L""]",FALSE,0,"[""<p>Sequence 1</p>"",""stimuli/coast_56.jpg"",""stimuli/stream_63.jpg"",""stimuli/bar_67.jpg""]","[""<p>Sequence 2</p>"",""stimuli/bridge_43.jpg"",""stimuli/gym_9.jpg"",""stimuli/field_68.jpg""]",2,23,1
gazelle,phkpn02qx0l,542,6,559393,"[""A"",""B"",""C""]","[""G"",""K"",""C""]",TRUE,1,"[""<p>Sequence 1</p>"",""stimuli/playground_61.jpg"",""stimuli/woods_35.jpg"",""stimuli/bar_67.jpg""]","[""<p>Sequence 2</p>"",""stimuli/coast_56.jpg"",""stimuli/stream_63.jpg"",""stimuli/bar_67.jpg""]",2,4050,2
gazelle,phkpn02qx0l,552,7,569165,"[""G"",""H"",""I""]","[""A"",""E"",""I""]",TRUE,1,"[""<p>Sequence 1</p>"",""stimuli/playground_61.jpg"",""stimuli/gym_9.jpg"",""stimuli/kitchen_5.jpg""]","[""<p>Sequence 2</p>"",""stimuli/coast_56.jpg"",""stimuli/desert_11.jpg"",""stimuli/kitchen_5.jpg""]",1,739,1
gazelle,phkpn02qx0l,562,8,578644,"[""J"",""K"",""L""]","[""D"",""H"",""L""]",FALSE,0,"[""<p>Sequence 1</p>"",""stimuli/street_56.jpg"",""stimuli/woods_35.jpg"",""stimuli/field_68.jpg""]","[""<p>Sequence 2</p>"",""stimuli/bridge_43.jpg"",""stimuli/gym_9.jpg"",""stimuli/field_68.jpg""]",2,445,1
gazelle,phkpn02qx0l,572,9,588721,"[""J"",""K"",""L""]","[""A"",""E"",""I""]",TRUE,1,"[""<p>Sequence 1</p>"",""stimuli/street_56.jpg"",""stimuli/woods_35.jpg"",""stimuli/field_68.jpg""]","[""<p>Sequence 2</p>"",""stimuli/coast_56.jpg"",""stimuli/desert_11.jpg"",""stimuli/kitchen_5.jpg""]",1,1047,1
gazelle,phkpn02qx0l,582,10,598275,"[""D"",""E"",""F""]","[""G"",""K"",""C""]",TRUE,1,"[""<p>Sequence 1</p>"",""stimuli/bridge_43.jpg"",""stimuli/desert_11.jpg"",""stimuli/bathroom_30.jpg""]","[""<p>Sequence 2</p>"",""stimuli/playground_61.jpg"",""stimuli/woods_35.jpg"",""stimuli/bar_67.jpg""]",1,520,1
gazelle,phkpn02qx0l,592,11,607782,"[""G"",""H"",""I""]","[""J"",""B"",""F""]",TRUE,1,"[""<p>Sequence 1</p>"",""stimuli/street_56.jpg"",""stimuli/stream_63.jpg"",""stimuli/bathroom_30.jpg""]","[""<p>Sequence 2</p>"",""stimuli/playground_61.jpg"",""stimuli/gym_9.jpg"",""stimuli/kitchen_5.jpg""]",2,475,2
gazelle,phkpn02qx0l,602,12,617474,"[""A"",""B"",""C""]","[""A"",""E"",""I""]",FALSE,0,"[""<p>Sequence 1</p>"",""stimuli/coast_56.jpg"",""stimuli/stream_63.jpg"",""stimuli/bar_67.jpg""]","[""<p>Sequence 2</p>"",""stimuli/coast_56.jpg"",""stimuli/desert_11.jpg"",""stimuli/kitchen_5.jpg""]",2,659,1
gazelle,phkpn02qx0l,612,13,626852,"[""D"",""E"",""F""]","[""D"",""H"",""L""]",FALSE,0,"[""<p>Sequence 1</p>"",""stimuli/bridge_43.jpg"",""stimuli/gym_9.jpg"",""stimuli/field_68.jpg""]","[""<p>Sequence 2</p>"",""stimuli/bridge_43.jpg"",""stimuli/desert_11.jpg"",""stimuli/bathroom_30.jpg""]",1,347,2
gazelle,phkpn02qx0l,622,14,636128,"[""G"",""H"",""I""]","[""D"",""H"",""L""]",TRUE,1,"[""<p>Sequence 1</p>"",""stimuli/playground_61.jpg"",""stimuli/gym_9.jpg"",""stimuli/kitchen_5.jpg""]","[""<p>Sequence 2</p>"",""stimuli/bridge_43.jpg"",""stimuli/gym_9.jpg"",""stimuli/field_68.jpg""]",1,244,1
gazelle,phkpn02qx0l,632,15,648135,"[""J"",""K"",""L""]","[""G"",""K"",""C""]",TRUE,1,"[""<p>Sequence 1</p>"",""stimuli/playground_61.jpg"",""stimuli/woods_35.jpg"",""stimuli/bar_67.jpg""]","[""<p>Sequence 2</p>"",""stimuli/street_56.jpg"",""stimuli/woods_35.jpg"",""stimuli/field_68.jpg""]",2,2973,2
gazelle,phkpn02qx0l,642,16,657914,"[""D"",""E"",""F""]","[""A"",""E"",""I""]",FALSE,0,"[""<p>Sequence 1</p>"",""stimuli/coast_56.jpg"",""stimuli/desert_11.jpg"",""stimuli/kitchen_5.jpg""]","[""<p>Sequence 2</p>"",""stimuli/bridge_43.jpg"",""stimuli/desert_11.jpg"",""stimuli/bathroom_30.jpg""]",1,752,2
falcon,pkr5zwjoqfy,486,1,651319,"[""J"",""K"",""L""]","[""J"",""B"",""F""]",FALSE,0,"[""<p>Sequence 1</p>"",""stimuli/coast_33.jpg"",""stimuli/woods_51.jpg"",""stimuli/field_27.jpg""]","[""<p>Sequence 2</p>"",""stimuli/coast_33.jpg"",""stimuli/stream_8.jpg"",""stimuli/bridge_11.jpg""]",2,1801,1
falcon,pkr5zwjoqfy,496,2,660607,"[""G"",""H"",""I""]","[""D"",""H"",""L""]",TRUE,1,"[""<p>Sequence 1</p>"",""stimuli/street_28.jpg"",""stimuli/bathroom_50.jpg"",""stimuli/bar_58.jpg""]","[""<p>Sequence 2</p>"",""stimuli/playground_38.jpg"",""stimuli/bathroom_50.jpg"",""stimuli/field_27.jpg""]",1,250,1
falcon,pkr5zwjoqfy,506,3,670229,"[""G"",""H"",""I""]","[""J"",""B"",""F""]",TRUE,1,"[""<p>Sequence 1</p>"",""stimuli/coast_33.jpg"",""stimuli/stream_8.jpg"",""stimuli/bridge_11.jpg""]","[""<p>Sequence 2</p>"",""stimuli/street_28.jpg"",""stimuli/bathroom_50.jpg"",""stimuli/bar_58.jpg""]",2,585,2
falcon,pkr5zwjoqfy,516,4,680012,"[""J"",""K"",""L""]","[""A"",""E"",""I""]",TRUE,1,"[""<p>Sequence 1</p>"",""stimuli/desert_51.jpg"",""stimuli/gym_21.jpg"",""stimuli/bar_58.jpg""]","[""<p>Sequence 2</p>"",""stimuli/coast_33.jpg"",""stimuli/woods_51.jpg"",""stimuli/field_27.jpg""]",2,738,2
falcon,pkr5zwjoqfy,526,5,691971,"[""D"",""E"",""F""]","[""J"",""B"",""F""]",TRUE,1,"[""<p>Sequence 1</p>"",""stimuli/coast_33.jpg"",""stimuli/stream_8.jpg"",""stimuli/bridge_11.jpg""]","[""<p>Sequence 2</p>"",""stimuli/playground_38.jpg"",""stimuli/gym_21.jpg"",""stimuli/bridge_11.jpg""]",2,2926,2
falcon,pkr5zwjoqfy,536,6,701416,"[""D"",""E"",""F""]","[""A"",""E"",""I""]",TRUE,1,"[""<p>Sequence 1</p>"",""stimuli/playground_38.jpg"",""stimuli/gym_21.jpg"",""stimuli/bridge_11.jpg""]","[""<p>Sequence 2</p>"",""stimuli/desert_51.jpg"",""stimuli/gym_21.jpg"",""stimuli/bar_58.jpg""]",1,411,1
falcon,pkr5zwjoqfy,546,7,711391,"[""A"",""B"",""C""]","[""A"",""E"",""I""]",TRUE,1,"[""<p>Sequence 1</p>"",""stimuli/desert_51.jpg"",""stimuli/stream_8.jpg"",""stimuli/kitchen_23.jpg""]","[""<p>Sequence 2</p>"",""stimuli/desert_51.jpg"",""stimuli/gym_21.jpg"",""stimuli/bar_58.jpg""]",1,939,1
falcon,pkr5zwjoqfy,556,8,721527,"[""G"",""H"",""I""]","[""A"",""E"",""I""]",FALSE,0,"[""<p>Sequence 1</p>"",""stimuli/street_28.jpg"",""stimuli/bathroom_50.jpg"",""stimuli/bar_58.jpg""]","[""<p>Sequence 2</p>"",""stimuli/desert_51.jpg"",""stimuli/gym_21.jpg"",""stimuli/bar_58.jpg""]",2,1099,1
falcon,pkr5zwjoqfy,566,9,730826,"[""A"",""B"",""C""]","[""D"",""H"",""L""]",TRUE,1,"[""<p>Sequence 1</p>"",""stimuli/playground_38.jpg"",""stimuli/bathroom_50.jpg"",""stimuli/field_27.jpg""]","[""<p>Sequence 2</p>"",""stimuli/desert_51.jpg"",""stimuli/stream_8.jpg"",""stimuli/kitchen_23.jpg""]",2,265,2
falcon,pkr5zwjoqfy,576,10,746734,"[""A"",""B"",""C""]","[""G"",""K"",""C""]",FALSE,0,"[""<p>Sequence 1</p>"",""stimuli/desert_51.jpg"",""stimuli/stream_8.jpg"",""stimuli/kitchen_23.jpg""]","[""<p>Sequence 2</p>"",""stimuli/street_28.jpg"",""stimuli/woods_51.jpg"",""stimuli/kitchen_23.jpg""]",2,6871,1
falcon,pkr5zwjoqfy,586,11,755988,"[""J"",""K"",""L""]","[""G"",""K"",""C""]",TRUE,1,"[""<p>Sequence 1</p>"",""stimuli/coast_33.jpg"",""stimuli/woods_51.jpg"",""stimuli/field_27.jpg""]","[""<p>Sequence 2</p>"",""stimuli/street_28.jpg"",""stimuli/woods_51.jpg"",""stimuli/kitchen_23.jpg""]",1,218,1
falcon,pkr5zwjoqfy,596,12,765209,"[""D"",""E"",""F""]","[""G"",""K"",""C""]",TRUE,1,"[""<p>Sequence 1</p>"",""stimuli/playground_38.jpg"",""stimuli/gym_21.jpg"",""stimuli/bridge_11.jpg""]","[""<p>Sequence 2</p>"",""stimuli/street_28.jpg"",""stimuli/woods_51.jpg"",""stimuli/kitchen_23.jpg""]",1,188,1
falcon,pkr5zwjoqfy,606,13,774558,"[""A"",""B"",""C""]","[""J"",""B"",""F""]",TRUE,1,"[""<p>Sequence 1</p>"",""stimuli/desert_51.jpg"",""stimuli/stream_8.jpg"",""stimuli/kitchen_23.jpg""]","[""<p>Sequence 2</p>"",""stimuli/coast_33.jpg"",""stimuli/stream_8.jpg"",""stimuli/bridge_11.jpg""]",1,312,1
falcon,pkr5zwjoqfy,616,14,783825,"[""J"",""K"",""L""]","[""D"",""H"",""L""]",TRUE,1,"[""<p>Sequence 1</p>"",""stimuli/playground_38.jpg"",""stimuli/bathroom_50.jpg"",""stimuli/field_27.jpg""]","[""<p>Sequence 2</p>"",""stimuli/coast_33.jpg"",""stimuli/woods_51.jpg"",""stimuli/field_27.jpg""]",2,234,2
falcon,pkr5zwjoqfy,626,15,793134,"[""G"",""H"",""I""]","[""G"",""K"",""C""]",TRUE,1,"[""<p>Sequence 1</p>"",""stimuli/street_28.jpg"",""stimuli/woods_51.jpg"",""stimuli/kitchen_23.jpg""]","[""<p>Sequence 2</p>"",""stimuli/street_28.jpg"",""stimuli/bathroom_50.jpg"",""stimuli/bar_58.jpg""]",2,273,2
falcon,pkr5zwjoqfy,636,16,802495,"[""D"",""E"",""F""]","[""D"",""H"",""L""]",TRUE,1,"[""<p>Sequence 1</p>"",""stimuli/playground_38.jpg"",""stimuli/bathroom_50.jpg"",""stimuli/field_27.jpg""]","[""<p>Sequence 2</p>"",""stimuli/playground_38.jpg"",""stimuli/gym_21.jpg"",""stimuli/bridge_11.jpg""]",2,326,2
kangaroo,plhygmgtf28,480,1,498558,"[""G"",""H"",""I""]","[""A"",""E"",""I""]",FALSE,0,"[""<p>Sequence 1</p>"",""stimuli/woods_68.jpg"",""stimuli/kitchen_42.jpg"",""stimuli/playground_14.jpg""]","[""<p>Sequence 2</p>"",""stimuli/field_59.jpg"",""stimuli/gym_67.jpg"",""stimuli/playground_14.jpg""]",1,1584,2
kangaroo,plhygmgtf28,490,2,508367,"[""A"",""B"",""C""]","[""G"",""K"",""C""]",FALSE,0,"[""<p>Sequence 1</p>"",""stimuli/field_59.jpg"",""stimuli/bar_9.jpg"",""stimuli/coast_55.jpg""]","[""<p>Sequence 2</p>"",""stimuli/woods_68.jpg"",""stimuli/bathroom_26.jpg"",""stimuli/coast_55.jpg""]",1,774,2
kangaroo,plhygmgtf28,500,3,518217,"[""A"",""B"",""C""]","[""A"",""E"",""I""]",TRUE,1,"[""<p>Sequence 1</p>"",""stimuli/woods_68.jpg"",""stimuli/kitchen_42.jpg"",""stimuli/playground_14.jpg""]","[""<p>Sequence 2</p>"",""stimuli/woods_68.jpg"",""stimuli/bathroom_26.jpg"",""stimuli/coast_55.jpg""]",2,816,2
kangaroo,plhygmgtf28,510,4,528505,"[""D"",""E"",""F""]","[""G"",""K"",""C""]",TRUE,1,"[""<p>Sequence 1</p>"",""stimuli/field_59.jpg"",""stimuli/bar_9.jpg"",""stimuli/coast_55.jpg""]","[""<p>Sequence 2</p>"",""stimuli/street_19.jpg"",""stimuli/kitchen_42.jpg"",""stimuli/stream_5.jpg""]",2,1253,2
kangaroo,plhygmgtf28,520,5,544111,"[""J"",""K"",""L""]","[""A"",""E"",""I""]",TRUE,1,"[""<p>Sequence 1</p>"",""stimuli/desert_17.jpg"",""stimuli/bar_9.jpg"",""stimuli/bridge_8.jpg""]","[""<p>Sequence 2</p>"",""stimuli/woods_68.jpg"",""stimuli/kitchen_42.jpg"",""stimuli/playground_14.jpg""]",1,6574,1
kangaroo,plhygmgtf28,530,6,554128,"[""G"",""H"",""I""]","[""D"",""H"",""L""]",TRUE,1,"[""<p>Sequence 1</p>"",""stimuli/street_19.jpg"",""stimuli/gym_67.jpg"",""stimuli/bridge_8.jpg""]","[""<p>Sequence 2</p>"",""stimuli/field_59.jpg"",""stimuli/gym_67.jpg"",""stimuli/playground_14.jpg""]",2,985,2
kangaroo,plhygmgtf28,540,7,563745,"[""A"",""B"",""C""]","[""D"",""H"",""L""]",FALSE,0,"[""<p>Sequence 1</p>"",""stimuli/woods_68.jpg"",""stimuli/bathroom_26.jpg"",""stimuli/coast_55.jpg""]","[""<p>Sequence 2</p>"",""stimuli/street_19.jpg"",""stimuli/gym_67.jpg"",""stimuli/bridge_8.jpg""]",2,586,1
kangaroo,plhygmgtf28,550,8,573364,"[""J"",""K"",""L""]","[""J"",""B"",""F""]",FALSE,0,"[""<p>Sequence 1</p>"",""stimuli/desert_17.jpg"",""stimuli/bar_9.jpg"",""stimuli/bridge_8.jpg""]","[""<p>Sequence 2</p>"",""stimuli/desert_17.jpg"",""stimuli/bathroom_26.jpg"",""stimuli/stream_5.jpg""]",2,588,1
kangaroo,plhygmgtf28,560,9,585617,"[""G"",""H"",""I""]","[""J"",""B"",""F""]",FALSE,0,"[""<p>Sequence 1</p>"",""stimuli/field_59.jpg"",""stimuli/gym_67.jpg"",""stimuli/playground_14.jpg""]","[""<p>Sequence 2</p>"",""stimuli/desert_17.jpg"",""stimuli/bathroom_26.jpg"",""stimuli/stream_5.jpg""]",2,3218,1
kangaroo,plhygmgtf28,570,10,594971,"[""J"",""K"",""L""]","[""G"",""K"",""C""]",FALSE,0,"[""<p>Sequence 1</p>"",""stimuli/desert_17.jpg"",""stimuli/bar_9.jpg"",""stimuli/bridge_8.jpg""]","[""<p>Sequence 2</p>"",""stimuli/field_59.jpg"",""stimuli/bar_9.jpg"",""stimuli/coast_55.jpg""]",2,322,1
kangaroo,plhygmgtf28,580,11,604285,"[""D"",""E"",""F""]","[""J"",""B"",""F""]",FALSE,0,"[""<p>Sequence 1</p>"",""stimuli/street_19.jpg"",""stimuli/kitchen_42.jpg"",""stimuli/stream_5.jpg""]","[""<p>Sequence 2</p>"",""stimuli/desert_17.jpg"",""stimuli/bathroom_26.jpg"",""stimuli/stream_5.jpg""]",2,283,1
kangaroo,plhygmgtf28,590,12,613911,"[""A"",""B"",""C""]","[""J"",""B"",""F""]",TRUE,1,"[""<p>Sequence 1</p>"",""stimuli/woods_68.jpg"",""stimuli/bathroom_26.jpg"",""stimuli/coast_55.jpg""]","[""<p>Sequence 2</p>"",""stimuli/desert_17.jpg"",""stimuli/bathroom_26.jpg"",""stimuli/stream_5.jpg""]",1,592,1
kangaroo,plhygmgtf28,600,13,622966,"[""D"",""E"",""F""]","[""A"",""E"",""I""]",TRUE,1,"[""<p>Sequence 1</p>"",""stimuli/woods_68.jpg"",""stimuli/kitchen_42.jpg"",""stimuli/playground_14.jpg""]","[""<p>Sequence 2</p>"",""stimuli/street_19.jpg"",""stimuli/kitchen_42.jpg"",""stimuli/stream_5.jpg""]",2,23,2
kangaroo,plhygmgtf28,610,14,632311,"[""G"",""H"",""I""]","[""G"",""K"",""C""]",TRUE,1,"[""<p>Sequence 1</p>"",""stimuli/field_59.jpg"",""stimuli/gym_67.jpg"",""stimuli/playground_14.jpg""]","[""<p>Sequence 2</p>"",""stimuli/field_59.jpg"",""stimuli/bar_9.jpg"",""stimuli/coast_55.jpg""]",1,311,1
kangaroo,plhygmgtf28,620,15,641645,"[""D"",""E"",""F""]","[""D"",""H"",""L""]",FALSE,0,"[""<p>Sequence 1</p>"",""stimuli/street_19.jpg"",""stimuli/kitchen_42.jpg"",""stimuli/stream_5.jpg""]","[""<p>Sequence 2</p>"",""stimuli/street_19.jpg"",""stimuli/gym_67.jpg"",""stimuli/bridge_8.jpg""]",2,301,1
kangaroo,plhygmgtf28,630,16,650806,"[""J"",""K"",""L""]","[""D"",""H"",""L""]",FALSE,0,"[""<p>Sequence 1</p>"",""stimuli/street_19.jpg"",""stimuli/gym_67.jpg"",""stimuli/bridge_8.jpg""]","[""<p>Sequence 2</p>"",""stimuli/desert_17.jpg"",""stimuli/bar_9.jpg"",""stimuli/bridge_8.jpg""]",1,127,2
A17689315,pppnvxzgt5o,474,1,546536,"[""J"",""K"",""L""]","[""G"",""K"",""C""]",TRUE,1,"[""<p>Sequence 1</p>"",""stimuli/gym_47.jpg"",""stimuli/playground_18.jpg"",""stimuli/street_31.jpg""]","[""<p>Sequence 2</p>"",""stimuli/bathroom_12.jpg"",""stimuli/playground_18.jpg"",""stimuli/desert_29.jpg""]",1,871,1
A17689315,pppnvxzgt5o,484,2,556106,"[""J"",""K"",""L""]","[""D"",""H"",""L""]",TRUE,1,"[""<p>Sequence 1</p>"",""stimuli/gym_47.jpg"",""stimuli/playground_18.jpg"",""stimuli/street_31.jpg""]","[""<p>Sequence 2</p>"",""stimuli/bridge_21.jpg"",""stimuli/woods_13.jpg"",""stimuli/street_31.jpg""]",1,554,1
A17689315,pppnvxzgt5o,494,3,565597,"[""A"",""B"",""C""]","[""J"",""B"",""F""]",FALSE,0,"[""<p>Sequence 1</p>"",""stimuli/coast_20.jpg"",""stimuli/bar_56.jpg"",""stimuli/desert_29.jpg""]","[""<p>Sequence 2</p>"",""stimuli/gym_47.jpg"",""stimuli/bar_56.jpg"",""stimuli/kitchen_33.jpg""]",2,476,1
A17689315,pppnvxzgt5o,504,4,575174,"[""D"",""E"",""F""]","[""A"",""E"",""I""]",TRUE,1,"[""<p>Sequence 1</p>"",""stimuli/coast_20.jpg"",""stimuli/field_14.jpg"",""stimuli/stream_13.jpg""]","[""<p>Sequence 2</p>"",""stimuli/bridge_21.jpg"",""stimuli/field_14.jpg"",""stimuli/kitchen_33.jpg""]",2,552,2
A17689315,pppnvxzgt5o,514,5,585858,"[""D"",""E"",""F""]","[""D"",""H"",""L""]",FALSE,0,"[""<p>Sequence 1</p>"",""stimuli/bridge_21.jpg"",""stimuli/field_14.jpg"",""stimuli/kitchen_33.jpg""]","[""<p>Sequence 2</p>"",""stimuli/bridge_21.jpg"",""stimuli/woods_13.jpg"",""stimuli/street_31.jpg""]",2,1665,1
A17689315,pppnvxzgt5o,524,6,595395,"[""G"",""H"",""I""]","[""D"",""H"",""L""]",FALSE,0,"[""<p>Sequence 1</p>"",""stimuli/bridge_21.jpg"",""stimuli/woods_13.jpg"",""stimuli/street_31.jpg""]","[""<p>Sequence 2</p>"",""stimuli/bathroom_12.jpg"",""stimuli/woods_13.jpg"",""stimuli/stream_13.jpg""]",1,519,2
A17689315,pppnvxzgt5o,534,7,608995,"[""D"",""E"",""F""]","[""G"",""K"",""C""]",TRUE,1,"[""<p>Sequence 1</p>"",""stimuli/bridge_21.jpg"",""stimuli/field_14.jpg"",""stimuli/kitchen_33.jpg""]","[""<p>Sequence 2</p>"",""stimuli/bathroom_12.jpg"",""stimuli/playground_18.jpg"",""stimuli/desert_29.jpg""]",1,4584,1
A17689315,pppnvxzgt5o,544,8,619385,"[""G"",""H"",""I""]","[""J"",""B"",""F""]",FALSE,0,"[""<p>Sequence 1</p>"",""stimuli/gym_47.jpg"",""stimuli/bar_56.jpg"",""stimuli/kitchen_33.jpg""]","[""<p>Sequence 2</p>"",""stimuli/bathroom_12.jpg"",""stimuli/woods_13.jpg"",""stimuli/stream_13.jpg""]",1,1374,2
A17689315,pppnvxzgt5o,554,9,629268,"[""G"",""H"",""I""]","[""G"",""K"",""C""]",FALSE,0,"[""<p>Sequence 1</p>"",""stimuli/bathroom_12.jpg"",""stimuli/woods_13.jpg"",""stimuli/stream_13.jpg""]","[""<p>Sequence 2</p>"",""stimuli/bathroom_12.jpg"",""stimuli/playground_18.jpg"",""stimuli/desert_29.jpg""]",2,869,1
A17689315,pppnvxzgt5o,564,10,638766,"[""J"",""K"",""L""]","[""A"",""E"",""I""]",TRUE,1,"[""<p>Sequence 1</p>"",""stimuli/coast_20.jpg"",""stimuli/field_14.jpg"",""stimuli/stream_13.jpg""]","[""<p>Sequence 2</p>"",""stimuli/gym_47.jpg"",""stimuli/playground_18.jpg"",""stimuli/street_31.jpg""]",2,482,2
A17689315,pppnvxzgt5o,574,11,648703,"[""J"",""K"",""L""]","[""J"",""B"",""F""]",TRUE,1,"[""<p>Sequence 1</p>"",""stimuli/gym_47.jpg"",""stimuli/bar_56.jpg"",""stimuli/kitchen_33.jpg""]","[""<p>Sequence 2</p>"",""stimuli/gym_47.jpg"",""stimuli/playground_18.jpg"",""stimuli/street_31.jpg""]",2,920,2
A17689315,pppnvxzgt5o,584,12,658483,"[""A"",""B"",""C""]","[""G"",""K"",""C""]",TRUE,1,"[""<p>Sequence 1</p>"",""stimuli/bathroom_12.jpg"",""stimuli/playground_18.jpg"",""stimuli/desert_29.jpg""]","[""<p>Sequence 2</p>"",""stimuli/coast_20.jpg"",""stimuli/bar_56.jpg"",""stimuli/desert_29.jpg""]",2,763,2
A17689315,pppnvxzgt5o,594,13,669872,"[""A"",""B"",""C""]","[""D"",""H"",""L""]",TRUE,1,"[""<p>Sequence 1</p>"",""stimuli/bridge_21.jpg"",""stimuli/woods_13.jpg"",""stimuli/street_31.jpg""]","[""<p>Sequence 2</p>"",""stimuli/coast_20.jpg"",""stimuli/bar_56.jpg"",""stimuli/desert_29.jpg""]",2,2372,2
A17689315,pppnvxzgt5o,604,14,679582,"[""D"",""E"",""F""]","[""J"",""B"",""F""]",TRUE,1,"[""<p>Sequence 1</p>"",""stimuli/bridge_21.jpg"",""stimuli/field_14.jpg"",""stimuli/kitchen_33.jpg""]","[""<p>Sequence 2</p>"",""stimuli/gym_47.jpg"",""stimuli/bar_56.jpg"",""stimuli/kitchen_33.jpg""]",1,694,1
A17689315,pppnvxzgt5o,614,15,688926,"[""G"",""H"",""I""]","[""A"",""E"",""I""]",FALSE,0,"[""<p>Sequence 1</p>"",""stimuli/coast_20.jpg"",""stimuli/field_14.jpg"",""stimuli/stream_13.jpg""]","[""<p>Sequence 2</p>"",""stimuli/bathroom_12.jpg"",""stimuli/woods_13.jpg"",""stimuli/stream_13.jpg""]",1,314,2
A17689315,pppnvxzgt5o,624,16,698425,"[""A"",""B"",""C""]","[""A"",""E"",""I""]",FALSE,0,"[""<p>Sequence 1</p>"",""stimuli/coast_20.jpg"",""stimuli/bar_56.jpg"",""stimuli/desert_29.jpg""]","[""<p>Sequence 2</p>"",""stimuli/coast_20.jpg"",""stimuli/field_14.jpg"",""stimuli/stream_13.jpg""]",2,483,1
squirrel,pq975lypb5a,483,1,494686,"[""D"",""E"",""F""]","[""G"",""K"",""C""]",TRUE,1,"[""<p>Sequence 1</p>"",""stimuli/bridge_13.jpg"",""stimuli/bathroom_28.jpg"",""stimuli/woods_26.jpg""]","[""<p>Sequence 2</p>"",""stimuli/gym_33.jpg"",""stimuli/kitchen_60.jpg"",""stimuli/bar_56.jpg""]",1,2037,1
squirrel,pq975lypb5a,493,2,504462,"[""A"",""B"",""C""]","[""J"",""B"",""F""]",TRUE,1,"[""<p>Sequence 1</p>"",""stimuli/field_37.jpg"",""stimuli/coast_23.jpg"",""stimuli/woods_26.jpg""]","[""<p>Sequence 2</p>"",""stimuli/street_32.jpg"",""stimuli/coast_23.jpg"",""stimuli/bar_56.jpg""]",2,747,2
squirrel,pq975lypb5a,503,3,516772,"[""J"",""K"",""L""]","[""D"",""H"",""L""]",FALSE,0,"[""<p>Sequence 1</p>"",""stimuli/field_37.jpg"",""stimuli/kitchen_60.jpg"",""stimuli/playground_26.jpg""]","[""<p>Sequence 2</p>"",""stimuli/bridge_13.jpg"",""stimuli/desert_36.jpg"",""stimuli/playground_26.jpg""]",2,3279,1
squirrel,pq975lypb5a,513,4,526426,"[""A"",""B"",""C""]","[""A"",""E"",""I""]",FALSE,0,"[""<p>Sequence 1</p>"",""stimuli/street_32.jpg"",""stimuli/bathroom_28.jpg"",""stimuli/stream_29.jpg""]","[""<p>Sequence 2</p>"",""stimuli/street_32.jpg"",""stimuli/coast_23.jpg"",""stimuli/bar_56.jpg""]",1,621,2
squirrel,pq975lypb5a,523,5,536125,"[""G"",""H"",""I""]","[""G"",""K"",""C""]",FALSE,0,"[""<p>Sequence 1</p>"",""stimuli/gym_33.jpg"",""stimuli/kitchen_60.jpg"",""stimuli/bar_56.jpg""]","[""<p>Sequence 2</p>"",""stimuli/gym_33.jpg"",""stimuli/desert_36.jpg"",""stimuli/stream_29.jpg""]",1,664,2
squirrel,pq975lypb5a,533,6,545608,"[""A"",""B"",""C""]","[""G"",""K"",""C""]",TRUE,1,"[""<p>Sequence 1</p>"",""stimuli/gym_33.jpg"",""stimuli/kitchen_60.jpg"",""stimuli/bar_56.jpg""]","[""<p>Sequence 2</p>"",""stimuli/street_32.jpg"",""stimuli/coast_23.jpg"",""stimuli/bar_56.jpg""]",2,450,2
squirrel,pq975lypb5a,543,7,555468,"[""D"",""E"",""F""]","[""A"",""E"",""I""]",FALSE,0,"[""<p>Sequence 1</p>"",""stimuli/bridge_13.jpg"",""stimuli/bathroom_28.jpg"",""stimuli/woods_26.jpg""]","[""<p>Sequence 2</p>"",""stimuli/street_32.jpg"",""stimuli/bathroom_28.jpg"",""stimuli/stream_29.jpg""]",2,824,1
squirrel,pq975lypb5a,553,8,565295,"[""D"",""E"",""F""]","[""J"",""B"",""F""]",FALSE,0,"[""<p>Sequence 1</p>"",""stimuli/field_37.jpg"",""stimuli/coast_23.jpg"",""stimuli/woods_26.jpg""]","[""<p>Sequence 2</p>"",""stimuli/bridge_13.jpg"",""stimuli/bathroom_28.jpg"",""stimuli/woods_26.jpg""]",1,800,2
squirrel,pq975lypb5a,563,9,575044,"[""J"",""K"",""L""]","[""A"",""E"",""I""]",TRUE,1,"[""<p>Sequence 1</p>"",""stimuli/street_32.jpg"",""stimuli/bathroom_28.jpg"",""stimuli/stream_29.jpg""]","[""<p>Sequence 2</p>"",""stimuli/field_37.jpg"",""stimuli/kitchen_60.jpg"",""stimuli/playground_26.jpg""]",2,717,2
squirrel,pq975lypb5a,573,10,592348,"[""J"",""K"",""L""]","[""G"",""K"",""C""]",TRUE,1,"[""<p>Sequence 1</p>"",""stimuli/gym_33.jpg"",""stimuli/kitchen_60.jpg"",""stimuli/bar_56.jpg""]","[""<p>Sequence 2</p>"",""stimuli/field_37.jpg"",""stimuli/kitchen_60.jpg"",""stimuli/playground_26.jpg""]",2,8270,2
squirrel,pq975lypb5a,583,11,604374,"[""A"",""B"",""C""]","[""D"",""H"",""L""]",TRUE,1,"[""<p>Sequence 1</p>"",""stimuli/bridge_13.jpg"",""stimuli/desert_36.jpg"",""stimuli/playground_26.jpg""]","[""<p>Sequence 2</p>"",""stimuli/street_32.jpg"",""stimuli/coast_23.jpg"",""stimuli/bar_56.jpg""]",2,2996,2
squirrel,pq975lypb5a,593,12,615705,"[""G"",""H"",""I""]","[""A"",""E"",""I""]",TRUE,1,"[""<p>Sequence 1</p>"",""stimuli/street_32.jpg"",""stimuli/bathroom_28.jpg"",""stimuli/stream_29.jpg""]","[""<p>Sequence 2</p>"",""stimuli/gym_33.jpg"",""stimuli/desert_36.jpg"",""stimuli/stream_29.jpg""]",2,2297,2
squirrel,pq975lypb5a,603,13,625072,"[""G"",""H"",""I""]","[""J"",""B"",""F""]",TRUE,1,"[""<p>Sequence 1</p>"",""stimuli/field_37.jpg"",""stimuli/coast_23.jpg"",""stimuli/woods_26.jpg""]","[""<p>Sequence 2</p>"",""stimuli/gym_33.jpg"",""stimuli/desert_36.jpg"",""stimuli/stream_29.jpg""]",2,336,2
squirrel,pq975lypb5a,613,14,635327,"[""G"",""H"",""I""]","[""D"",""H"",""L""]",TRUE,1,"[""<p>Sequence 1</p>"",""stimuli/gym_33.jpg"",""stimuli/desert_36.jpg"",""stimuli/stream_29.jpg""]","[""<p>Sequence 2</p>"",""stimuli/bridge_13.jpg"",""stimuli/desert_36.jpg"",""stimuli/playground_26.jpg""]",1,1220,1
squirrel,pq975lypb5a,623,15,644815,"[""J"",""K"",""L""]","[""J"",""B"",""F""]",FALSE,0,"[""<p>Sequence 1</p>"",""stimuli/field_37.jpg"",""stimuli/kitchen_60.jpg"",""stimuli/playground_26.jpg""]","[""<p>Sequence 2</p>"",""stimuli/field_37.jpg"",""stimuli/coast_23.jpg"",""stimuli/woods_26.jpg""]",2,456,1
squirrel,pq975lypb5a,633,16,655067,"[""D"",""E"",""F""]","[""D"",""H"",""L""]",TRUE,1,"[""<p>Sequence 1</p>"",""stimuli/bridge_13.jpg"",""stimuli/bathroom_28.jpg"",""stimuli/woods_26.jpg""]","[""<p>Sequence 2</p>"",""stimuli/bridge_13.jpg"",""stimuli/desert_36.jpg"",""stimuli/playground_26.jpg""]",1,1224,1
shark,pr5oady3g9p,450,1,471082,"[""J"",""K"",""L""]","[""A"",""E"",""I""]",TRUE,1,"[""<p>Sequence 1</p>"",""stimuli/street_14.jpg"",""stimuli/stream_24.jpg"",""stimuli/gym_10.jpg""]","[""<p>Sequence 2</p>"",""stimuli/bridge_36.jpg"",""stimuli/woods_64.jpg"",""stimuli/kitchen_30.jpg""]",2,786,2
shark,pr5oady3g9p,460,2,480928,"[""A"",""B"",""C""]","[""D"",""H"",""L""]",TRUE,1,"[""<p>Sequence 1</p>"",""stimuli/street_14.jpg"",""stimuli/bathroom_6.jpg"",""stimuli/desert_17.jpg""]","[""<p>Sequence 2</p>"",""stimuli/bar_55.jpg"",""stimuli/coast_64.jpg"",""stimuli/kitchen_30.jpg""]",1,750,1
shark,pr5oady3g9p,470,3,491219,"[""G"",""H"",""I""]","[""J"",""B"",""F""]",TRUE,1,"[""<p>Sequence 1</p>"",""stimuli/bridge_36.jpg"",""stimuli/bathroom_6.jpg"",""stimuli/field_26.jpg""]","[""<p>Sequence 2</p>"",""stimuli/playground_2.jpg"",""stimuli/coast_64.jpg"",""stimuli/gym_10.jpg""]",2,1241,2
shark,pr5oady3g9p,480,4,501412,"[""J"",""K"",""L""]","[""J"",""B"",""F""]",TRUE,1,"[""<p>Sequence 1</p>"",""stimuli/bridge_36.jpg"",""stimuli/woods_64.jpg"",""stimuli/kitchen_30.jpg""]","[""<p>Sequence 2</p>"",""stimuli/bridge_36.jpg"",""stimuli/bathroom_6.jpg"",""stimuli/field_26.jpg""]",1,1137,1
shark,pr5oady3g9p,490,5,511275,"[""J"",""K"",""L""]","[""D"",""H"",""L""]",TRUE,1,"[""<p>Sequence 1</p>"",""stimuli/bar_55.jpg"",""stimuli/coast_64.jpg"",""stimuli/kitchen_30.jpg""]","[""<p>Sequence 2</p>"",""stimuli/bridge_36.jpg"",""stimuli/woods_64.jpg"",""stimuli/kitchen_30.jpg""]",2,782,2
shark,pr5oady3g9p,500,6,522183,"[""A"",""B"",""C""]","[""A"",""E"",""I""]",TRUE,1,"[""<p>Sequence 1</p>"",""stimuli/street_14.jpg"",""stimuli/stream_24.jpg"",""stimuli/gym_10.jpg""]","[""<p>Sequence 2</p>"",""stimuli/street_14.jpg"",""stimuli/bathroom_6.jpg"",""stimuli/desert_17.jpg""]",2,1820,2
shark,pr5oady3g9p,510,7,531814,"[""D"",""E"",""F""]","[""A"",""E"",""I""]",FALSE,0,"[""<p>Sequence 1</p>"",""stimuli/street_14.jpg"",""stimuli/stream_24.jpg"",""stimuli/gym_10.jpg""]","[""<p>Sequence 2</p>"",""stimuli/bar_55.jpg"",""stimuli/stream_24.jpg"",""stimuli/field_26.jpg""]",1,548,2
shark,pr5oady3g9p,520,8,541298,"[""G"",""H"",""I""]","[""A"",""E"",""I""]",FALSE,0,"[""<p>Sequence 1</p>"",""stimuli/playground_2.jpg"",""stimuli/coast_64.jpg"",""stimuli/gym_10.jpg""]","[""<p>Sequence 2</p>"",""stimuli/street_14.jpg"",""stimuli/stream_24.jpg"",""stimuli/gym_10.jpg""]",2,424,1
shark,pr5oady3g9p,530,9,550745,"[""A"",""B"",""C""]","[""J"",""B"",""F""]",TRUE,1,"[""<p>Sequence 1</p>"",""stimuli/bridge_36.jpg"",""stimuli/bathroom_6.jpg"",""stimuli/field_26.jpg""]","[""<p>Sequence 2</p>"",""stimuli/street_14.jpg"",""stimuli/bathroom_6.jpg"",""stimuli/desert_17.jpg""]",2,370,2
shark,pr5oady3g9p,540,10,560070,"[""D"",""E"",""F""]","[""D"",""H"",""L""]",TRUE,1,"[""<p>Sequence 1</p>"",""stimuli/bar_55.jpg"",""stimuli/stream_24.jpg"",""stimuli/field_26.jpg""]","[""<p>Sequence 2</p>"",""stimuli/bar_55.jpg"",""stimuli/coast_64.jpg"",""stimuli/kitchen_30.jpg""]",1,221,1
shark,pr5oady3g9p,550,11,572870,"[""D"",""E"",""F""]","[""G"",""K"",""C""]",TRUE,1,"[""<p>Sequence 1</p>"",""stimuli/bar_55.jpg"",""stimuli/stream_24.jpg"",""stimuli/field_26.jpg""]","[""<p>Sequence 2</p>"",""stimuli/playground_2.jpg"",""stimuli/woods_64.jpg"",""stimuli/desert_17.jpg""]",1,3702,1
shark,pr5oady3g9p,560,12,582897,"[""G"",""H"",""I""]","[""G"",""K"",""C""]",TRUE,1,"[""<p>Sequence 1</p>"",""stimuli/playground_2.jpg"",""stimuli/coast_64.jpg"",""stimuli/gym_10.jpg""]","[""<p>Sequence 2</p>"",""stimuli/playground_2.jpg"",""stimuli/woods_64.jpg"",""stimuli/desert_17.jpg""]",1,961,1
shark,pr5oady3g9p,570,13,592481,"[""J"",""K"",""L""]","[""G"",""K"",""C""]",TRUE,1,"[""<p>Sequence 1</p>"",""stimuli/playground_2.jpg"",""stimuli/woods_64.jpg"",""stimuli/desert_17.jpg""]","[""<p>Sequence 2</p>"",""stimuli/bridge_36.jpg"",""stimuli/woods_64.jpg"",""stimuli/kitchen_30.jpg""]",2,530,2
shark,pr5oady3g9p,580,14,601857,"[""D"",""E"",""F""]","[""J"",""B"",""F""]",TRUE,1,"[""<p>Sequence 1</p>"",""stimuli/bridge_36.jpg"",""stimuli/bathroom_6.jpg"",""stimuli/field_26.jpg""]","[""<p>Sequence 2</p>"",""stimuli/bar_55.jpg"",""stimuli/stream_24.jpg"",""stimuli/field_26.jpg""]",2,321,2
shark,pr5oady3g9p,590,15,611313,"[""A"",""B"",""C""]","[""G"",""K"",""C""]",TRUE,1,"[""<p>Sequence 1</p>"",""stimuli/street_14.jpg"",""stimuli/bathroom_6.jpg"",""stimuli/desert_17.jpg""]","[""<p>Sequence 2</p>"",""stimuli/playground_2.jpg"",""stimuli/woods_64.jpg"",""stimuli/desert_17.jpg""]",1,393,1
shark,pr5oady3g9p,600,16,620657,"[""G"",""H"",""I""]","[""D"",""H"",""L""]",FALSE,0,"[""<p>Sequence 1</p>"",""stimuli/playground_2.jpg"",""stimuli/coast_64.jpg"",""stimuli/gym_10.jpg""]","[""<p>Sequence 2</p>"",""stimuli/bar_55.jpg"",""stimuli/coast_64.jpg"",""stimuli/kitchen_30.jpg""]",2,274,1
panda,psfbv10qd5k,480,1,501897,"[""G"",""H"",""I""]","[""J"",""B"",""F""]",FALSE,0,"[""<p>Sequence 1</p>"",""stimuli/bridge_20.jpg"",""stimuli/street_47.jpg"",""stimuli/stream_31.jpg""]","[""<p>Sequence 2</p>"",""stimuli/playground_7.jpg"",""stimuli/woods_2.jpg"",""stimuli/kitchen_51.jpg""]",2,8873,1
panda,psfbv10qd5k,490,2,513062,"[""G"",""H"",""I""]","[""G"",""K"",""C""]",FALSE,0,"[""<p>Sequence 1</p>"",""stimuli/bridge_20.jpg"",""stimuli/street_47.jpg"",""stimuli/stream_31.jpg""]","[""<p>Sequence 2</p>"",""stimuli/bridge_20.jpg"",""stimuli/bar_41.jpg"",""stimuli/gym_9.jpg""]",2,2127,1
panda,psfbv10qd5k,500,3,523696,"[""J"",""K"",""L""]","[""D"",""H"",""L""]",FALSE,0,"[""<p>Sequence 1</p>"",""stimuli/playground_7.jpg"",""stimuli/bar_41.jpg"",""stimuli/bathroom_57.jpg""]","[""<p>Sequence 2</p>"",""stimuli/coast_35.jpg"",""stimuli/street_47.jpg"",""stimuli/bathroom_57.jpg""]",2,1592,1
panda,psfbv10qd5k,510,4,533994,"[""G"",""H"",""I""]","[""D"",""H"",""L""]",FALSE,0,"[""<p>Sequence 1</p>"",""stimuli/bridge_20.jpg"",""stimuli/street_47.jpg"",""stimuli/stream_31.jpg""]","[""<p>Sequence 2</p>"",""stimuli/coast_35.jpg"",""stimuli/street_47.jpg"",""stimuli/bathroom_57.jpg""]",2,1255,1
panda,psfbv10qd5k,520,5,544292,"[""D"",""E"",""F""]","[""D"",""H"",""L""]",TRUE,1,"[""<p>Sequence 1</p>"",""stimuli/coast_35.jpg"",""stimuli/street_47.jpg"",""stimuli/bathroom_57.jpg""]","[""<p>Sequence 2</p>"",""stimuli/coast_35.jpg"",""stimuli/field_55.jpg"",""stimuli/kitchen_51.jpg""]",2,1259,2
panda,psfbv10qd5k,530,6,554126,"[""A"",""B"",""C""]","[""G"",""K"",""C""]",FALSE,0,"[""<p>Sequence 1</p>"",""stimuli/bridge_20.jpg"",""stimuli/bar_41.jpg"",""stimuli/gym_9.jpg""]","[""<p>Sequence 2</p>"",""stimuli/desert_54.jpg"",""stimuli/woods_2.jpg"",""stimuli/gym_9.jpg""]",1,793,2
panda,psfbv10qd5k,540,7,564063,"[""J"",""K"",""L""]","[""A"",""E"",""I""]",FALSE,0,"[""<p>Sequence 1</p>"",""stimuli/desert_54.jpg"",""stimuli/field_55.jpg"",""stimuli/stream_31.jpg""]","[""<p>Sequence 2</p>"",""stimuli/playground_7.jpg"",""stimuli/bar_41.jpg"",""stimuli/bathroom_57.jpg""]",1,897,2
panda,psfbv10qd5k,550,8,576255,"[""A"",""B"",""C""]","[""J"",""B"",""F""]",TRUE,1,"[""<p>Sequence 1</p>"",""stimuli/desert_54.jpg"",""stimuli/woods_2.jpg"",""stimuli/gym_9.jpg""]","[""<p>Sequence 2</p>"",""stimuli/playground_7.jpg"",""stimuli/woods_2.jpg"",""stimuli/kitchen_51.jpg""]",1,3153,1
panda,psfbv10qd5k,560,9,588375,"[""D"",""E"",""F""]","[""G"",""K"",""C""]",TRUE,1,"[""<p>Sequence 1</p>"",""stimuli/coast_35.jpg"",""stimuli/field_55.jpg"",""stimuli/kitchen_51.jpg""]","[""<p>Sequence 2</p>"",""stimuli/bridge_20.jpg"",""stimuli/bar_41.jpg"",""stimuli/gym_9.jpg""]",1,3078,1
panda,psfbv10qd5k,570,10,600429,"[""J"",""K"",""L""]","[""G"",""K"",""C""]",TRUE,1,"[""<p>Sequence 1</p>"",""stimuli/bridge_20.jpg"",""stimuli/bar_41.jpg"",""stimuli/gym_9.jpg""]","[""<p>Sequence 2</p>"",""stimuli/playground_7.jpg"",""stimuli/bar_41.jpg"",""stimuli/bathroom_57.jpg""]",2,3012,2
panda,psfbv10qd5k,580,11,613365,"[""A"",""B"",""C""]","[""A"",""E"",""I""]",TRUE,1,"[""<p>Sequence 1</p>"",""stimuli/desert_54.jpg"",""stimuli/field_55.jpg"",""stimuli/stream_31.jpg""]","[""<p>Sequence 2</p>"",""stimuli/desert_54.jpg"",""stimuli/woods_2.jpg"",""stimuli/gym_9.jpg""]",2,3893,2
panda,psfbv10qd5k,590,12,624671,"[""J"",""K"",""L""]","[""J"",""B"",""F""]",FALSE,0,"[""<p>Sequence 1</p>"",""stimuli/playground_7.jpg"",""stimuli/bar_41.jpg"",""stimuli/bathroom_57.jpg""]","[""<p>Sequence 2</p>"",""stimuli/playground_7.jpg"",""stimuli/woods_2.jpg"",""stimuli/kitchen_51.jpg""]",2,2263,1
panda,psfbv10qd5k,600,13,636825,"[""G"",""H"",""I""]","[""A"",""E"",""I""]",FALSE,0,"[""<p>Sequence 1</p>"",""stimuli/desert_54.jpg"",""stimuli/field_55.jpg"",""stimuli/stream_31.jpg""]","[""<p>Sequence 2</p>"",""stimuli/bridge_20.jpg"",""stimuli/street_47.jpg"",""stimuli/stream_31.jpg""]",1,3113,2
panda,psfbv10qd5k,610,14,649262,"[""A"",""B"",""C""]","[""D"",""H"",""L""]",FALSE,0,"[""<p>Sequence 1</p>"",""stimuli/coast_35.jpg"",""stimuli/street_47.jpg"",""stimuli/bathroom_57.jpg""]","[""<p>Sequence 2</p>"",""stimuli/desert_54.jpg"",""stimuli/woods_2.jpg"",""stimuli/gym_9.jpg""]",1,3395,2
panda,psfbv10qd5k,620,15,664431,"[""D"",""E"",""F""]","[""A"",""E"",""I""]",FALSE,0,"[""<p>Sequence 1</p>"",""stimuli/coast_35.jpg"",""stimuli/field_55.jpg"",""stimuli/kitchen_51.jpg""]","[""<p>Sequence 2</p>"",""stimuli/desert_54.jpg"",""stimuli/field_55.jpg"",""stimuli/stream_31.jpg""]",2,6129,1
panda,psfbv10qd5k,630,16,675830,"[""D"",""E"",""F""]","[""J"",""B"",""F""]",TRUE,1,"[""<p>Sequence 1</p>"",""stimuli/playground_7.jpg"",""stimuli/woods_2.jpg"",""stimuli/kitchen_51.jpg""]","[""<p>Sequence 2</p>"",""stimuli/coast_35.jpg"",""stimuli/field_55.jpg"",""stimuli/kitchen_51.jpg""]",2,2359,2
heron,psufftogyyo,498,1,517769,"[""A"",""B"",""C""]","[""A"",""E"",""I""]",FALSE,0,"[""<p>Sequence 1</p>"",""stimuli/woods_20.jpg"",""stimuli/kitchen_23.jpg"",""stimuli/stream_68.jpg""]","[""<p>Sequence 2</p>"",""stimuli/woods_20.jpg"",""stimuli/street_13.jpg"",""stimuli/desert_30.jpg""]",1,1844,2
heron,psufftogyyo,508,2,528260,"[""A"",""B"",""C""]","[""D"",""H"",""L""]",TRUE,1,"[""<p>Sequence 1</p>"",""stimuli/woods_20.jpg"",""stimuli/street_13.jpg"",""stimuli/desert_30.jpg""]","[""<p>Sequence 2</p>"",""stimuli/bathroom_46.jpg"",""stimuli/bar_63.jpg"",""stimuli/field_25.jpg""]",1,1382,1
heron,psufftogyyo,518,3,537831,"[""A"",""B"",""C""]","[""G"",""K"",""C""]",TRUE,1,"[""<p>Sequence 1</p>"",""stimuli/coast_26.jpg"",""stimuli/gym_38.jpg"",""stimuli/desert_30.jpg""]","[""<p>Sequence 2</p>"",""stimuli/woods_20.jpg"",""stimuli/street_13.jpg"",""stimuli/desert_30.jpg""]",2,498,2
heron,psufftogyyo,528,4,547660,"[""A"",""B"",""C""]","[""J"",""B"",""F""]",TRUE,1,"[""<p>Sequence 1</p>"",""stimuli/woods_20.jpg"",""stimuli/street_13.jpg"",""stimuli/desert_30.jpg""]","[""<p>Sequence 2</p>"",""stimuli/playground_54.jpg"",""stimuli/street_13.jpg"",""stimuli/bridge_37.jpg""]",1,728,1
heron,psufftogyyo,538,5,557165,"[""D"",""E"",""F""]","[""A"",""E"",""I""]",TRUE,1,"[""<p>Sequence 1</p>"",""stimuli/woods_20.jpg"",""stimuli/kitchen_23.jpg"",""stimuli/stream_68.jpg""]","[""<p>Sequence 2</p>"",""stimuli/bathroom_46.jpg"",""stimuli/kitchen_23.jpg"",""stimuli/bridge_37.jpg""]",2,411,2
heron,psufftogyyo,548,6,566682,"[""D"",""E"",""F""]","[""D"",""H"",""L""]",TRUE,1,"[""<p>Sequence 1</p>"",""stimuli/bathroom_46.jpg"",""stimuli/kitchen_23.jpg"",""stimuli/bridge_37.jpg""]","[""<p>Sequence 2</p>"",""stimuli/bathroom_46.jpg"",""stimuli/bar_63.jpg"",""stimuli/field_25.jpg""]",1,409,1
heron,psufftogyyo,558,7,576322,"[""D"",""E"",""F""]","[""G"",""K"",""C""]",TRUE,1,"[""<p>Sequence 1</p>"",""stimuli/coast_26.jpg"",""stimuli/gym_38.jpg"",""stimuli/desert_30.jpg""]","[""<p>Sequence 2</p>"",""stimuli/bathroom_46.jpg"",""stimuli/kitchen_23.jpg"",""stimuli/bridge_37.jpg""]",2,514,2
heron,psufftogyyo,568,8,585894,"[""D"",""E"",""F""]","[""J"",""B"",""F""]",TRUE,1,"[""<p>Sequence 1</p>"",""stimuli/bathroom_46.jpg"",""stimuli/kitchen_23.jpg"",""stimuli/bridge_37.jpg""]","[""<p>Sequence 2</p>"",""stimuli/playground_54.jpg"",""stimuli/street_13.jpg"",""stimuli/bridge_37.jpg""]",1,441,1
heron,psufftogyyo,578,9,595533,"[""G"",""H"",""I""]","[""A"",""E"",""I""]",TRUE,1,"[""<p>Sequence 1</p>"",""stimuli/coast_26.jpg"",""stimuli/bar_63.jpg"",""stimuli/stream_68.jpg""]","[""<p>Sequence 2</p>"",""stimuli/woods_20.jpg"",""stimuli/kitchen_23.jpg"",""stimuli/stream_68.jpg""]",1,554,1
heron,psufftogyyo,588,10,605287,"[""G"",""H"",""I""]","[""D"",""H"",""L""]",TRUE,1,"[""<p>Sequence 1</p>"",""stimuli/coast_26.jpg"",""stimuli/bar_63.jpg"",""stimuli/stream_68.jpg""]","[""<p>Sequence 2</p>"",""stimuli/bathroom_46.jpg"",""stimuli/bar_63.jpg"",""stimuli/field_25.jpg""]",1,627,1
heron,psufftogyyo,598,11,615507,"[""G"",""H"",""I""]","[""G"",""K"",""C""]",TRUE,1,"[""<p>Sequence 1</p>"",""stimuli/coast_26.jpg"",""stimuli/bar_63.jpg"",""stimuli/stream_68.jpg""]","[""<p>Sequence 2</p>"",""stimuli/coast_26.jpg"",""stimuli/gym_38.jpg"",""stimuli/desert_30.jpg""]",1,1111,1
heron,psufftogyyo,608,12,625106,"[""G"",""H"",""I""]","[""J"",""B"",""F""]",TRUE,1,"[""<p>Sequence 1</p>"",""stimuli/playground_54.jpg"",""stimuli/street_13.jpg"",""stimuli/bridge_37.jpg""]","[""<p>Sequence 2</p>"",""stimuli/coast_26.jpg"",""stimuli/bar_63.jpg"",""stimuli/stream_68.jpg""]",2,481,2
heron,psufftogyyo,618,13,635321,"[""J"",""K"",""L""]","[""A"",""E"",""I""]",FALSE,0,"[""<p>Sequence 1</p>"",""stimuli/woods_20.jpg"",""stimuli/kitchen_23.jpg"",""stimuli/stream_68.jpg""]","[""<p>Sequence 2</p>"",""stimuli/playground_54.jpg"",""stimuli/gym_38.jpg"",""stimuli/field_25.jpg""]",1,1086,2
