"success","timeout","failed_images","failed_audio","failed_video","trial_type","trial_index","plugin_version","time_elapsed","random_id","participant","rt","stimulus","response","category","letter","correct_response","correct_response_key","trial_counter","current_image","test_triplet","foil_triplet","correct","firstSequencePaths","secondSequencePaths"
"true","false","[]","[]","[]","preload","0","2.0.0","1377","p0hlt41tr55","pelican","","","","","","","","","","","","","",""
"true","","","","","fullscreen","1","null","4075","p0hlt41tr55","pelican","1695","","","","","","","","","","","","",""
"","","","","","html-keyboard-response","2","2.0.0","5142","p0hlt41tr55","pelican","1065","Welcome to the experiment. Press any key to begin."," ","","","","","","","","","","",""
"","","","","","survey-text","3","2.0.0","9370","p0hlt41tr55","pelican","4226","","{""participant_id"":""pelican""}","","","","","","","","","","",""
"","","","","","html-keyboard-response","4","2.0.0","17005","p0hlt41tr55","pelican","7634","
  <p>For this trial, you will see a series of images.</p>
  <p><b>Press the spacebar whenever you see the same image appear twice in a row.</b></p>
  <p>In other words, whener the same image repeats back to back, press the spacebar.</p>
  <p>Press any key to begin.</p>"," ","","","","","","","","","","",""
"","","","","","image-keyboard-response","5","2.0.0","18008","p0hlt41tr55","pelican","null","stimuli/kitchen_41.jpg","null","kitchen","D","non-repeat","null","0","stimuli/kitchen_41.jpg","","","","",""
"","","","","","image-keyboard-response","6","2.0.0","19011","p0hlt41tr55","pelican","null","stimuli/street_54.jpg","null","street","E","non-repeat","null","1","stimuli/street_54.jpg","","","","",""
"","","","","","image-keyboard-response","7","2.0.0","20015","p0hlt41tr55","pelican","null","stimuli/bathroom_57.jpg","null","bathroom","F","non-repeat","null","2","stimuli/bathroom_57.jpg","","","","",""
"","","","","","image-keyboard-response","8","2.0.0","21017","p0hlt41tr55","pelican","null","stimuli/gym_42.jpg","null","gym","G","non-repeat","null","3","stimuli/gym_42.jpg","","","","",""
"","","","","","image-keyboard-response","9","2.0.0","22021","p0hlt41tr55","pelican","null","stimuli/playground_11.jpg","null","playground","H","non-repeat","null","4","stimuli/playground_11.jpg","","","","",""
"","","","","","image-keyboard-response","10","2.0.0","23024","p0hlt41tr55","pelican","null","stimuli/bar_48.jpg","null","bar","I","non-repeat","null","5","stimuli/bar_48.jpg","","","","",""
"","","","","","image-keyboard-response","11","2.0.0","24028","p0hlt41tr55","pelican","680","stimuli/kitchen_41.jpg"," ","kitchen","D","non-repeat","null","6","stimuli/kitchen_41.jpg","","","","",""
"","","","","","image-keyboard-response","12","2.0.0","25031","p0hlt41tr55","pelican","null","stimuli/street_54.jpg","null","street","E","non-repeat","null","7","stimuli/street_54.jpg","","","","",""
"","","","","","image-keyboard-response","13","2.0.0","26034","p0hlt41tr55","pelican","523","stimuli/bathroom_57.jpg"," ","bathroom","F","non-repeat","null","8","stimuli/bathroom_57.jpg","","","","",""
"","","","","","image-keyboard-response","14","2.0.0","27038","p0hlt41tr55","pelican","489","stimuli/bathroom_57.jpg"," ","bathroom","F","repeat"," ","8","","","","","",""
"","","","","","image-keyboard-response","15","2.0.0","28040","p0hlt41tr55","pelican","null","stimuli/bridge_8.jpg","null","bridge","A","non-repeat","null","9","stimuli/bridge_8.jpg","","","","",""
"","","","","","image-keyboard-response","16","2.0.0","29044","p0hlt41tr55","pelican","null","stimuli/stream_6.jpg","null","stream","B","non-repeat","null","10","stimuli/stream_6.jpg","","","","",""
"","","","","","image-keyboard-response","17","2.0.0","30047","p0hlt41tr55","pelican","null","stimuli/woods_28.jpg","null","woods","C","non-repeat","null","11","stimuli/woods_28.jpg","","","","",""
"","","","","","image-keyboard-response","18","2.0.0","31051","p0hlt41tr55","pelican","713","stimuli/gym_42.jpg"," ","gym","G","non-repeat","null","12","stimuli/gym_42.jpg","","","","",""
"","","","","","image-keyboard-response","19","2.0.0","32054","p0hlt41tr55","pelican","590","stimuli/playground_11.jpg"," ","playground","H","non-repeat","null","13","stimuli/playground_11.jpg","","","","",""
"","","","","","image-keyboard-response","20","2.0.0","33056","p0hlt41tr55","pelican","572","stimuli/bar_48.jpg"," ","bar","I","non-repeat","null","14","stimuli/bar_48.jpg","","","","",""
"","","","","","image-keyboard-response","21","2.0.0","34059","p0hlt41tr55","pelican","null","stimuli/desert_23.jpg","null","desert","J","non-repeat","null","15","stimuli/desert_23.jpg","","","","",""
"","","","","","image-keyboard-response","22","2.0.0","35063","p0hlt41tr55","pelican","null","stimuli/coast_14.jpg","null","coast","K","non-repeat","null","16","stimuli/coast_14.jpg","","","","",""
"","","","","","image-keyboard-response","23","2.0.0","36066","p0hlt41tr55","pelican","null","stimuli/field_54.jpg","null","field","L","non-repeat","null","17","stimuli/field_54.jpg","","","","",""
"","","","","","image-keyboard-response","24","2.0.0","37069","p0hlt41tr55","pelican","535","stimuli/field_54.jpg"," ","field","L","repeat"," ","17","","","","","",""
"","","","","","image-keyboard-response","25","2.0.0","38073","p0hlt41tr55","pelican","586","stimuli/kitchen_41.jpg"," ","kitchen","D","non-repeat","null","18","stimuli/kitchen_41.jpg","","","","",""
"","","","","","image-keyboard-response","26","2.0.0","39075","p0hlt41tr55","pelican","487","stimuli/kitchen_41.jpg"," ","kitchen","D","repeat"," ","18","","","","","",""
"","","","","","image-keyboard-response","27","2.0.0","40078","p0hlt41tr55","pelican","731","stimuli/street_54.jpg"," ","street","E","non-repeat","null","19","stimuli/street_54.jpg","","","","",""
"","","","","","image-keyboard-response","28","2.0.0","41081","p0hlt41tr55","pelican","549","stimuli/bathroom_57.jpg"," ","bathroom","F","non-repeat","null","20","stimuli/bathroom_57.jpg","","","","",""
"","","","","","image-keyboard-response","29","2.0.0","42085","p0hlt41tr55","pelican","589","stimuli/desert_23.jpg"," ","desert","J","non-repeat","null","21","stimuli/desert_23.jpg","","","","",""
"","","","","","image-keyboard-response","30","2.0.0","43088","p0hlt41tr55","pelican","673","stimuli/coast_14.jpg"," ","coast","K","non-repeat","null","22","stimuli/coast_14.jpg","","","","",""
"","","","","","image-keyboard-response","31","2.0.0","44091","p0hlt41tr55","pelican","533","stimuli/field_54.jpg"," ","field","L","non-repeat","null","23","stimuli/field_54.jpg","","","","",""
"","","","","","image-keyboard-response","32","2.0.0","45094","p0hlt41tr55","pelican","541","stimuli/gym_42.jpg"," ","gym","G","non-repeat","null","24","stimuli/gym_42.jpg","","","","",""
"","","","","","image-keyboard-response","33","2.0.0","46097","p0hlt41tr55","pelican","544","stimuli/gym_42.jpg"," ","gym","G","repeat"," ","24","","","","","",""
"","","","","","image-keyboard-response","34","2.0.0","47101","p0hlt41tr55","pelican","570","stimuli/playground_11.jpg"," ","playground","H","non-repeat","null","25","stimuli/playground_11.jpg","","","","",""
"","","","","","image-keyboard-response","35","2.0.0","48105","p0hlt41tr55","pelican","491","stimuli/bar_48.jpg"," ","bar","I","non-repeat","null","26","stimuli/bar_48.jpg","","","","",""
"","","","","","image-keyboard-response","36","2.0.0","49108","p0hlt41tr55","pelican","455","stimuli/bar_48.jpg"," ","bar","I","repeat"," ","26","","","","","",""
"","","","","","image-keyboard-response","37","2.0.0","50111","p0hlt41tr55","pelican","503","stimuli/desert_23.jpg"," ","desert","J","non-repeat","null","27","stimuli/desert_23.jpg","","","","",""
"","","","","","image-keyboard-response","38","2.0.0","51115","p0hlt41tr55","pelican","461","stimuli/coast_14.jpg"," ","coast","K","non-repeat","null","28","stimuli/coast_14.jpg","","","","",""
"","","","","","image-keyboard-response","39","2.0.0","52117","p0hlt41tr55","pelican","460","stimuli/field_54.jpg"," ","field","L","non-repeat","null","29","stimuli/field_54.jpg","","","","",""
"","","","","","image-keyboard-response","40","2.0.0","53119","p0hlt41tr55","pelican","589","stimuli/bridge_8.jpg"," ","bridge","A","non-repeat","null","30","stimuli/bridge_8.jpg","","","","",""
"","","","","","image-keyboard-response","41","2.0.0","54121","p0hlt41tr55","pelican","721","stimuli/stream_6.jpg"," ","stream","B","non-repeat","null","31","stimuli/stream_6.jpg","","","","",""
"","","","","","image-keyboard-response","42","2.0.0","55123","p0hlt41tr55","pelican","null","stimuli/woods_28.jpg","null","woods","C","non-repeat","null","32","stimuli/woods_28.jpg","","","","",""
"","","","","","image-keyboard-response","43","2.0.0","56126","p0hlt41tr55","pelican","624","stimuli/woods_28.jpg"," ","woods","C","repeat"," ","32","","","","","",""
"","","","","","image-keyboard-response","44","2.0.0","57129","p0hlt41tr55","pelican","524","stimuli/kitchen_41.jpg"," ","kitchen","D","non-repeat","null","33","stimuli/kitchen_41.jpg","","","","",""
"","","","","","image-keyboard-response","45","2.0.0","58131","p0hlt41tr55","pelican","555","stimuli/street_54.jpg"," ","street","E","non-repeat","null","34","stimuli/street_54.jpg","","","","",""
"","","","","","image-keyboard-response","46","2.0.0","59133","p0hlt41tr55","pelican","502","stimuli/bathroom_57.jpg"," ","bathroom","F","non-repeat","null","35","stimuli/bathroom_57.jpg","","","","",""
"","","","","","image-keyboard-response","47","2.0.0","60135","p0hlt41tr55","pelican","461","stimuli/desert_23.jpg"," ","desert","J","non-repeat","null","36","stimuli/desert_23.jpg","","","","",""
"","","","","","image-keyboard-response","48","2.0.0","61137","p0hlt41tr55","pelican","404","stimuli/desert_23.jpg"," ","desert","J","repeat"," ","36","","","","","",""
"","","","","","image-keyboard-response","49","2.0.0","62140","p0hlt41tr55","pelican","472","stimuli/coast_14.jpg"," ","coast","K","non-repeat","null","37","stimuli/coast_14.jpg","","","","",""
"","","","","","image-keyboard-response","50","2.0.0","63142","p0hlt41tr55","pelican","586","stimuli/field_54.jpg"," ","field","L","non-repeat","null","38","stimuli/field_54.jpg","","","","",""
"","","","","","image-keyboard-response","51","2.0.0","64145","p0hlt41tr55","pelican","493","stimuli/field_54.jpg"," ","field","L","repeat"," ","38","","","","","",""
"","","","","","image-keyboard-response","52","2.0.0","65147","p0hlt41tr55","pelican","529","stimuli/bridge_8.jpg"," ","bridge","A","non-repeat","null","39","stimuli/bridge_8.jpg","","","","",""
"","","","","","image-keyboard-response","53","2.0.0","66150","p0hlt41tr55","pelican","483","stimuli/bridge_8.jpg"," ","bridge","A","repeat"," ","39","","","","","",""
"","","","","","image-keyboard-response","54","2.0.0","67153","p0hlt41tr55","pelican","665","stimuli/stream_6.jpg"," ","stream","B","non-repeat","null","40","stimuli/stream_6.jpg","","","","",""
"","","","","","image-keyboard-response","55","2.0.0","68156","p0hlt41tr55","pelican","554","stimuli/woods_28.jpg"," ","woods","C","non-repeat","null","41","stimuli/woods_28.jpg","","","","",""
"","","","","","image-keyboard-response","56","2.0.0","69158","p0hlt41tr55","pelican","515","stimuli/kitchen_41.jpg"," ","kitchen","D","non-repeat","null","42","stimuli/kitchen_41.jpg","","","","",""
"","","","","","image-keyboard-response","57","2.0.0","70160","p0hlt41tr55","pelican","475","stimuli/street_54.jpg"," ","street","E","non-repeat","null","43","stimuli/street_54.jpg","","","","",""
"","","","","","image-keyboard-response","58","2.0.0","71163","p0hlt41tr55","pelican","403","stimuli/bathroom_57.jpg"," ","bathroom","F","non-repeat","null","44","stimuli/bathroom_57.jpg","","","","",""
"","","","","","image-keyboard-response","59","2.0.0","72166","p0hlt41tr55","pelican","444","stimuli/desert_23.jpg"," ","desert","J","non-repeat","null","45","stimuli/desert_23.jpg","","","","",""
"","","","","","image-keyboard-response","60","2.0.0","73169","p0hlt41tr55","pelican","405","stimuli/coast_14.jpg"," ","coast","K","non-repeat","null","46","stimuli/coast_14.jpg","","","","",""
"","","","","","image-keyboard-response","61","2.0.0","74171","p0hlt41tr55","pelican","360","stimuli/field_54.jpg"," ","field","L","non-repeat","null","47","stimuli/field_54.jpg","","","","",""
"","","","","","image-keyboard-response","62","2.0.0","75173","p0hlt41tr55","pelican","399","stimuli/bridge_8.jpg"," ","bridge","A","non-repeat","null","48","stimuli/bridge_8.jpg","","","","",""
"","","","","","image-keyboard-response","63","2.0.0","76176","p0hlt41tr55","pelican","397","stimuli/bridge_8.jpg"," ","bridge","A","repeat"," ","48","","","","","",""
"","","","","","image-keyboard-response","64","2.0.0","77180","p0hlt41tr55","pelican","537","stimuli/stream_6.jpg"," ","stream","B","non-repeat","null","49","stimuli/stream_6.jpg","","","","",""
"","","","","","image-keyboard-response","65","2.0.0","78183","p0hlt41tr55","pelican","420","stimuli/woods_28.jpg"," ","woods","C","non-repeat","null","50","stimuli/woods_28.jpg","","","","",""
"","","","","","image-keyboard-response","66","2.0.0","79186","p0hlt41tr55","pelican","401","stimuli/kitchen_41.jpg"," ","kitchen","D","non-repeat","null","51","stimuli/kitchen_41.jpg","","","","",""
"","","","","","image-keyboard-response","67","2.0.0","80190","p0hlt41tr55","pelican","null","stimuli/street_54.jpg","null","street","E","non-repeat","null","52","stimuli/street_54.jpg","","","","",""
"","","","","","image-keyboard-response","68","2.0.0","81192","p0hlt41tr55","pelican","495","stimuli/bathroom_57.jpg"," ","bathroom","F","non-repeat","null","53","stimuli/bathroom_57.jpg","","","","",""
"","","","","","image-keyboard-response","69","2.0.0","82195","p0hlt41tr55","pelican","418","stimuli/desert_23.jpg"," ","desert","J","non-repeat","null","54","stimuli/desert_23.jpg","","","","",""
"","","","","","image-keyboard-response","70","2.0.0","83198","p0hlt41tr55","pelican","376","stimuli/coast_14.jpg"," ","coast","K","non-repeat","null","55","stimuli/coast_14.jpg","","","","",""
"","","","","","image-keyboard-response","71","2.0.0","84201","p0hlt41tr55","pelican","327","stimuli/field_54.jpg"," ","field","L","non-repeat","null","56","stimuli/field_54.jpg","","","","",""
"","","","","","image-keyboard-response","72","2.0.0","85204","p0hlt41tr55","pelican","418","stimuli/field_54.jpg"," ","field","L","repeat"," ","56","","","","","",""
"","","","","","image-keyboard-response","73","2.0.0","86207","p0hlt41tr55","pelican","358","stimuli/bridge_8.jpg"," ","bridge","A","non-repeat","null","57","stimuli/bridge_8.jpg","","","","",""
"","","","","","image-keyboard-response","74","2.0.0","87210","p0hlt41tr55","pelican","358","stimuli/stream_6.jpg"," ","stream","B","non-repeat","null","58","stimuli/stream_6.jpg","","","","",""
"","","","","","image-keyboard-response","75","2.0.0","88212","p0hlt41tr55","pelican","408","stimuli/woods_28.jpg"," ","woods","C","non-repeat","null","59","stimuli/woods_28.jpg","","","","",""
"","","","","","image-keyboard-response","76","2.0.0","89215","p0hlt41tr55","pelican","435","stimuli/desert_23.jpg"," ","desert","J","non-repeat","null","60","stimuli/desert_23.jpg","","","","",""
"","","","","","image-keyboard-response","77","2.0.0","90217","p0hlt41tr55","pelican","476","stimuli/desert_23.jpg"," ","desert","J","repeat"," ","60","","","","","",""
"","","","","","image-keyboard-response","78","2.0.0","91219","p0hlt41tr55","pelican","331","stimuli/coast_14.jpg"," ","coast","K","non-repeat","null","61","stimuli/coast_14.jpg","","","","",""
"","","","","","image-keyboard-response","79","2.0.0","92223","p0hlt41tr55","pelican","334","stimuli/field_54.jpg"," ","field","L","non-repeat","null","62","stimuli/field_54.jpg","","","","",""
"","","","","","image-keyboard-response","80","2.0.0","93227","p0hlt41tr55","pelican","349","stimuli/kitchen_41.jpg"," ","kitchen","D","non-repeat","null","63","stimuli/kitchen_41.jpg","","","","",""
"","","","","","image-keyboard-response","81","2.0.0","94230","p0hlt41tr55","pelican","365","stimuli/street_54.jpg"," ","street","E","non-repeat","null","64","stimuli/street_54.jpg","","","","",""
"","","","","","image-keyboard-response","82","2.0.0","95233","p0hlt41tr55","pelican","331","stimuli/bathroom_57.jpg"," ","bathroom","F","non-repeat","null","65","stimuli/bathroom_57.jpg","","","","",""
"","","","","","image-keyboard-response","83","2.0.0","96237","p0hlt41tr55","pelican","318","stimuli/bathroom_57.jpg"," ","bathroom","F","repeat"," ","65","","","","","",""
"","","","","","image-keyboard-response","84","2.0.0","97240","p0hlt41tr55","pelican","274","stimuli/desert_23.jpg"," ","desert","J","non-repeat","null","66","stimuli/desert_23.jpg","","","","",""
"","","","","","image-keyboard-response","85","2.0.0","98242","p0hlt41tr55","pelican","298","stimuli/desert_23.jpg"," ","desert","J","repeat"," ","66","","","","","",""
"","","","","","image-keyboard-response","86","2.0.0","99245","p0hlt41tr55","pelican","257","stimuli/coast_14.jpg"," ","coast","K","non-repeat","null","67","stimuli/coast_14.jpg","","","","",""
"","","","","","image-keyboard-response","87","2.0.0","100248","p0hlt41tr55","pelican","237","stimuli/field_54.jpg"," ","field","L","non-repeat","null","68","stimuli/field_54.jpg","","","","",""
"","","","","","image-keyboard-response","88","2.0.0","101251","p0hlt41tr55","pelican","191","stimuli/field_54.jpg"," ","field","L","repeat"," ","68","","","","","",""
"","","","","","image-keyboard-response","89","2.0.0","102255","p0hlt41tr55","pelican","259","stimuli/gym_42.jpg"," ","gym","G","non-repeat","null","69","stimuli/gym_42.jpg","","","","",""
"","","","","","image-keyboard-response","90","2.0.0","103257","p0hlt41tr55","pelican","335","stimuli/playground_11.jpg"," ","playground","H","non-repeat","null","70","stimuli/playground_11.jpg","","","","",""
"","","","","","image-keyboard-response","91","2.0.0","104260","p0hlt41tr55","pelican","511","stimuli/bar_48.jpg"," ","bar","I","non-repeat","null","71","stimuli/bar_48.jpg","","","","",""
"","","","","","image-keyboard-response","92","2.0.0","105264","p0hlt41tr55","pelican","402","stimuli/kitchen_41.jpg"," ","kitchen","D","non-repeat","null","72","stimuli/kitchen_41.jpg","","","","",""
"","","","","","image-keyboard-response","93","2.0.0","106267","p0hlt41tr55","pelican","445","stimuli/street_54.jpg"," ","street","E","non-repeat","null","73","stimuli/street_54.jpg","","","","",""
"","","","","","image-keyboard-response","94","2.0.0","107270","p0hlt41tr55","pelican","404","stimuli/bathroom_57.jpg"," ","bathroom","F","non-repeat","null","74","stimuli/bathroom_57.jpg","","","","",""
"","","","","","image-keyboard-response","95","2.0.0","108274","p0hlt41tr55","pelican","418","stimuli/desert_23.jpg"," ","desert","J","non-repeat","null","75","stimuli/desert_23.jpg","","","","",""
"","","","","","image-keyboard-response","96","2.0.0","109277","p0hlt41tr55","pelican","449","stimuli/coast_14.jpg"," ","coast","K","non-repeat","null","76","stimuli/coast_14.jpg","","","","",""
"","","","","","image-keyboard-response","97","2.0.0","110280","p0hlt41tr55","pelican","450","stimuli/field_54.jpg"," ","field","L","non-repeat","null","77","stimuli/field_54.jpg","","","","",""
"","","","","","image-keyboard-response","98","2.0.0","111282","p0hlt41tr55","pelican","425","stimuli/kitchen_41.jpg"," ","kitchen","D","non-repeat","null","78","stimuli/kitchen_41.jpg","","","","",""
"","","","","","image-keyboard-response","99","2.0.0","112285","p0hlt41tr55","pelican","408","stimuli/kitchen_41.jpg"," ","kitchen","D","repeat"," ","78","","","","","",""
"","","","","","image-keyboard-response","100","2.0.0","113288","p0hlt41tr55","pelican","343","stimuli/street_54.jpg"," ","street","E","non-repeat","null","79","stimuli/street_54.jpg","","","","",""
"","","","","","image-keyboard-response","101","2.0.0","114289","p0hlt41tr55","pelican","335","stimuli/bathroom_57.jpg"," ","bathroom","F","non-repeat","null","80","stimuli/bathroom_57.jpg","","","","",""
"","","","","","image-keyboard-response","102","2.0.0","115292","p0hlt41tr55","pelican","336","stimuli/desert_23.jpg"," ","desert","J","non-repeat","null","81","stimuli/desert_23.jpg","","","","",""
"","","","","","image-keyboard-response","103","2.0.0","116294","p0hlt41tr55","pelican","299","stimuli/coast_14.jpg"," ","coast","K","non-repeat","null","82","stimuli/coast_14.jpg","","","","",""
"","","","","","image-keyboard-response","104","2.0.0","117297","p0hlt41tr55","pelican","243","stimuli/field_54.jpg"," ","field","L","non-repeat","null","83","stimuli/field_54.jpg","","","","",""
"","","","","","image-keyboard-response","105","2.0.0","118300","p0hlt41tr55","pelican","256","stimuli/field_54.jpg"," ","field","L","repeat"," ","83","","","","","",""
"","","","","","image-keyboard-response","106","2.0.0","119301","p0hlt41tr55","pelican","274","stimuli/gym_42.jpg"," ","gym","G","non-repeat","null","84","stimuli/gym_42.jpg","","","","",""
"","","","","","image-keyboard-response","107","2.0.0","120304","p0hlt41tr55","pelican","269","stimuli/playground_11.jpg"," ","playground","H","non-repeat","null","85","stimuli/playground_11.jpg","","","","",""
"","","","","","image-keyboard-response","108","2.0.0","121306","p0hlt41tr55","pelican","309","stimuli/bar_48.jpg"," ","bar","I","non-repeat","null","86","stimuli/bar_48.jpg","","","","",""
"","","","","","image-keyboard-response","109","2.0.0","122309","p0hlt41tr55","pelican","345","stimuli/desert_23.jpg"," ","desert","J","non-repeat","null","87","stimuli/desert_23.jpg","","","","",""
"","","","","","image-keyboard-response","110","2.0.0","123311","p0hlt41tr55","pelican","356","stimuli/desert_23.jpg"," ","desert","J","repeat"," ","87","","","","","",""
"","","","","","image-keyboard-response","111","2.0.0","124314","p0hlt41tr55","pelican","347","stimuli/coast_14.jpg"," ","coast","K","non-repeat","null","88","stimuli/coast_14.jpg","","","","",""
"","","","","","image-keyboard-response","112","2.0.0","125316","p0hlt41tr55","pelican","398","stimuli/field_54.jpg"," ","field","L","non-repeat","null","89","stimuli/field_54.jpg","","","","",""
"","","","","","image-keyboard-response","113","2.0.0","126319","p0hlt41tr55","pelican","313","stimuli/kitchen_41.jpg"," ","kitchen","D","non-repeat","null","90","stimuli/kitchen_41.jpg","","","","",""
"","","","","","image-keyboard-response","114","2.0.0","127321","p0hlt41tr55","pelican","405","stimuli/street_54.jpg"," ","street","E","non-repeat","null","91","stimuli/street_54.jpg","","","","",""
"","","","","","image-keyboard-response","115","2.0.0","128324","p0hlt41tr55","pelican","332","stimuli/bathroom_57.jpg"," ","bathroom","F","non-repeat","null","92","stimuli/bathroom_57.jpg","","","","",""
"","","","","","image-keyboard-response","116","2.0.0","129327","p0hlt41tr55","pelican","310","stimuli/desert_23.jpg"," ","desert","J","non-repeat","null","93","stimuli/desert_23.jpg","","","","",""
"","","","","","image-keyboard-response","117","2.0.0","130330","p0hlt41tr55","pelican","null","stimuli/coast_14.jpg","null","coast","K","non-repeat","null","94","stimuli/coast_14.jpg","","","","",""
"","","","","","image-keyboard-response","118","2.0.0","131331","p0hlt41tr55","pelican","null","stimuli/field_54.jpg","null","field","L","non-repeat","null","95","stimuli/field_54.jpg","","","","",""
"","","","","","image-keyboard-response","119","2.0.0","132335","p0hlt41tr55","pelican","null","stimuli/kitchen_41.jpg","null","kitchen","D","non-repeat","null","96","stimuli/kitchen_41.jpg","","","","",""
"","","","","","image-keyboard-response","120","2.0.0","133339","p0hlt41tr55","pelican","519","stimuli/kitchen_41.jpg"," ","kitchen","D","repeat"," ","96","","","","","",""
"","","","","","image-keyboard-response","121","2.0.0","134343","p0hlt41tr55","pelican","null","stimuli/street_54.jpg","null","street","E","non-repeat","null","97","stimuli/street_54.jpg","","","","",""
"","","","","","image-keyboard-response","122","2.0.0","135345","p0hlt41tr55","pelican","449","stimuli/bathroom_57.jpg"," ","bathroom","F","non-repeat","null","98","stimuli/bathroom_57.jpg","","","","",""
"","","","","","image-keyboard-response","123","2.0.0","136348","p0hlt41tr55","pelican","null","stimuli/bridge_8.jpg","null","bridge","A","non-repeat","null","99","stimuli/bridge_8.jpg","","","","",""
"","","","","","image-keyboard-response","124","2.0.0","137359","p0hlt41tr55","pelican","null","stimuli/stream_6.jpg","null","stream","B","non-repeat","null","100","stimuli/stream_6.jpg","","","","",""
"","","","","","image-keyboard-response","125","2.0.0","138362","p0hlt41tr55","pelican","null","stimuli/woods_28.jpg","null","woods","C","non-repeat","null","101","stimuli/woods_28.jpg","","","","",""
"","","","","","image-keyboard-response","126","2.0.0","139365","p0hlt41tr55","pelican","null","stimuli/kitchen_41.jpg","null","kitchen","D","non-repeat","null","102","stimuli/kitchen_41.jpg","","","","",""
"","","","","","image-keyboard-response","127","2.0.0","140368","p0hlt41tr55","pelican","514","stimuli/kitchen_41.jpg"," ","kitchen","D","repeat"," ","102","","","","","",""
"","","","","","image-keyboard-response","128","2.0.0","141371","p0hlt41tr55","pelican","null","stimuli/street_54.jpg","null","street","E","non-repeat","null","103","stimuli/street_54.jpg","","","","",""
"","","","","","image-keyboard-response","129","2.0.0","142372","p0hlt41tr55","pelican","null","stimuli/bathroom_57.jpg","null","bathroom","F","non-repeat","null","104","stimuli/bathroom_57.jpg","","","","",""
"","","","","","image-keyboard-response","130","2.0.0","143374","p0hlt41tr55","pelican","386","stimuli/bathroom_57.jpg"," ","bathroom","F","repeat"," ","104","","","","","",""
"","","","","","image-keyboard-response","131","2.0.0","144377","p0hlt41tr55","pelican","null","stimuli/bridge_8.jpg","null","bridge","A","non-repeat","null","105","stimuli/bridge_8.jpg","","","","",""
"","","","","","image-keyboard-response","132","2.0.0","145380","p0hlt41tr55","pelican","394","stimuli/stream_6.jpg"," ","stream","B","non-repeat","null","106","stimuli/stream_6.jpg","","","","",""
"","","","","","image-keyboard-response","133","2.0.0","146384","p0hlt41tr55","pelican","null","stimuli/woods_28.jpg","null","woods","C","non-repeat","null","107","stimuli/woods_28.jpg","","","","",""
"","","","","","image-keyboard-response","134","2.0.0","147386","p0hlt41tr55","pelican","569","stimuli/woods_28.jpg"," ","woods","C","repeat"," ","107","","","","","",""
"","","","","","image-keyboard-response","135","2.0.0","148388","p0hlt41tr55","pelican","null","stimuli/gym_42.jpg","null","gym","G","non-repeat","null","108","stimuli/gym_42.jpg","","","","",""
"","","","","","image-keyboard-response","136","2.0.0","149391","p0hlt41tr55","pelican","351","stimuli/gym_42.jpg"," ","gym","G","repeat"," ","108","","","","","",""
"","","","","","image-keyboard-response","137","2.0.0","150395","p0hlt41tr55","pelican","null","stimuli/playground_11.jpg","null","playground","H","non-repeat","null","109","stimuli/playground_11.jpg","","","","",""
"","","","","","image-keyboard-response","138","2.0.0","151397","p0hlt41tr55","pelican","null","stimuli/bar_48.jpg","null","bar","I","non-repeat","null","110","stimuli/bar_48.jpg","","","","",""
"","","","","","image-keyboard-response","139","2.0.0","152400","p0hlt41tr55","pelican","null","stimuli/desert_23.jpg","null","desert","J","non-repeat","null","111","stimuli/desert_23.jpg","","","","",""
"","","","","","image-keyboard-response","140","2.0.0","153403","p0hlt41tr55","pelican","505","stimuli/desert_23.jpg"," ","desert","J","repeat"," ","111","","","","","",""
"","","","","","image-keyboard-response","141","2.0.0","154405","p0hlt41tr55","pelican","null","stimuli/coast_14.jpg","null","coast","K","non-repeat","null","112","stimuli/coast_14.jpg","","","","",""
"","","","","","image-keyboard-response","142","2.0.0","155409","p0hlt41tr55","pelican","null","stimuli/field_54.jpg","null","field","L","non-repeat","null","113","stimuli/field_54.jpg","","","","",""
"","","","","","image-keyboard-response","143","2.0.0","156411","p0hlt41tr55","pelican","null","stimuli/bridge_8.jpg","null","bridge","A","non-repeat","null","114","stimuli/bridge_8.jpg","","","","",""
"","","","","","image-keyboard-response","144","2.0.0","157414","p0hlt41tr55","pelican","null","stimuli/stream_6.jpg","null","stream","B","non-repeat","null","115","stimuli/stream_6.jpg","","","","",""
"","","","","","image-keyboard-response","145","2.0.0","158417","p0hlt41tr55","pelican","null","stimuli/woods_28.jpg","null","woods","C","non-repeat","null","116","stimuli/woods_28.jpg","","","","",""
"","","","","","image-keyboard-response","146","2.0.0","159419","p0hlt41tr55","pelican","null","stimuli/gym_42.jpg","null","gym","G","non-repeat","null","117","stimuli/gym_42.jpg","","","","",""
"","","","","","image-keyboard-response","147","2.0.0","160422","p0hlt41tr55","pelican","null","stimuli/playground_11.jpg","null","playground","H","non-repeat","null","118","stimuli/playground_11.jpg","","","","",""
"","","","","","image-keyboard-response","148","2.0.0","161424","p0hlt41tr55","pelican","null","stimuli/bar_48.jpg","null","bar","I","non-repeat","null","119","stimuli/bar_48.jpg","","","","",""
"","","","","","image-keyboard-response","149","2.0.0","162427","p0hlt41tr55","pelican","null","stimuli/bridge_8.jpg","null","bridge","A","non-repeat","null","120","stimuli/bridge_8.jpg","","","","",""
"","","","","","image-keyboard-response","150","2.0.0","163430","p0hlt41tr55","pelican","null","stimuli/stream_6.jpg","null","stream","B","non-repeat","null","121","stimuli/stream_6.jpg","","","","",""
"","","","","","image-keyboard-response","151","2.0.0","164433","p0hlt41tr55","pelican","556","stimuli/woods_28.jpg"," ","woods","C","non-repeat","null","122","stimuli/woods_28.jpg","","","","",""
"","","","","","image-keyboard-response","152","2.0.0","165436","p0hlt41tr55","pelican","null","stimuli/desert_23.jpg","null","desert","J","non-repeat","null","123","stimuli/desert_23.jpg","","","","",""
"","","","","","image-keyboard-response","153","2.0.0","166439","p0hlt41tr55","pelican","null","stimuli/coast_14.jpg","null","coast","K","non-repeat","null","124","stimuli/coast_14.jpg","","","","",""
"","","","","","image-keyboard-response","154","2.0.0","167442","p0hlt41tr55","pelican","null","stimuli/field_54.jpg","null","field","L","non-repeat","null","125","stimuli/field_54.jpg","","","","",""
"","","","","","image-keyboard-response","155","2.0.0","168444","p0hlt41tr55","pelican","null","stimuli/gym_42.jpg","null","gym","G","non-repeat","null","126","stimuli/gym_42.jpg","","","","",""
"","","","","","image-keyboard-response","156","2.0.0","169447","p0hlt41tr55","pelican","null","stimuli/playground_11.jpg","null","playground","H","non-repeat","null","127","stimuli/playground_11.jpg","","","","",""
"","","","","","image-keyboard-response","157","2.0.0","170450","p0hlt41tr55","pelican","null","stimuli/bar_48.jpg","null","bar","I","non-repeat","null","128","stimuli/bar_48.jpg","","","","",""
"","","","","","image-keyboard-response","158","2.0.0","171453","p0hlt41tr55","pelican","null","stimuli/bridge_8.jpg","null","bridge","A","non-repeat","null","129","stimuli/bridge_8.jpg","","","","",""
"","","","","","image-keyboard-response","159","2.0.0","172454","p0hlt41tr55","pelican","718","stimuli/bridge_8.jpg"," ","bridge","A","repeat"," ","129","","","","","",""
"","","","","","image-keyboard-response","160","2.0.0","173456","p0hlt41tr55","pelican","null","stimuli/stream_6.jpg","null","stream","B","non-repeat","null","130","stimuli/stream_6.jpg","","","","",""
"","","","","","image-keyboard-response","161","2.0.0","174458","p0hlt41tr55","pelican","null","stimuli/woods_28.jpg","null","woods","C","non-repeat","null","131","stimuli/woods_28.jpg","","","","",""
"","","","","","image-keyboard-response","162","2.0.0","175461","p0hlt41tr55","pelican","null","stimuli/gym_42.jpg","null","gym","G","non-repeat","null","132","stimuli/gym_42.jpg","","","","",""
"","","","","","image-keyboard-response","163","2.0.0","176463","p0hlt41tr55","pelican","null","stimuli/playground_11.jpg","null","playground","H","non-repeat","null","133","stimuli/playground_11.jpg","","","","",""
"","","","","","image-keyboard-response","164","2.0.0","177465","p0hlt41tr55","pelican","null","stimuli/bar_48.jpg","null","bar","I","non-repeat","null","134","stimuli/bar_48.jpg","","","","",""
"","","","","","image-keyboard-response","165","2.0.0","178468","p0hlt41tr55","pelican","null","stimuli/bridge_8.jpg","null","bridge","A","non-repeat","null","135","stimuli/bridge_8.jpg","","","","",""
"","","","","","image-keyboard-response","166","2.0.0","179469","p0hlt41tr55","pelican","429","stimuli/bridge_8.jpg"," ","bridge","A","repeat"," ","135","","","","","",""
"","","","","","image-keyboard-response","167","2.0.0","180472","p0hlt41tr55","pelican","null","stimuli/stream_6.jpg","null","stream","B","non-repeat","null","136","stimuli/stream_6.jpg","","","","",""
"","","","","","image-keyboard-response","168","2.0.0","181474","p0hlt41tr55","pelican","null","stimuli/woods_28.jpg","null","woods","C","non-repeat","null","137","stimuli/woods_28.jpg","","","","",""
"","","","","","image-keyboard-response","169","2.0.0","182477","p0hlt41tr55","pelican","null","stimuli/gym_42.jpg","null","gym","G","non-repeat","null","138","stimuli/gym_42.jpg","","","","",""
"","","","","","image-keyboard-response","170","2.0.0","183479","p0hlt41tr55","pelican","null","stimuli/playground_11.jpg","null","playground","H","non-repeat","null","139","stimuli/playground_11.jpg","","","","",""
"","","","","","image-keyboard-response","171","2.0.0","184481","p0hlt41tr55","pelican","null","stimuli/bar_48.jpg","null","bar","I","non-repeat","null","140","stimuli/bar_48.jpg","","","","",""
"","","","","","image-keyboard-response","172","2.0.0","185483","p0hlt41tr55","pelican","null","stimuli/kitchen_41.jpg","null","kitchen","D","non-repeat","null","141","stimuli/kitchen_41.jpg","","","","",""
"","","","","","image-keyboard-response","173","2.0.0","186486","p0hlt41tr55","pelican","null","stimuli/street_54.jpg","null","street","E","non-repeat","null","142","stimuli/street_54.jpg","","","","",""
"","","","","","image-keyboard-response","174","2.0.0","187489","p0hlt41tr55","pelican","null","stimuli/bathroom_57.jpg","null","bathroom","F","non-repeat","null","143","stimuli/bathroom_57.jpg","","","","",""
"","","","","","image-keyboard-response","175","2.0.0","188491","p0hlt41tr55","pelican","null","stimuli/gym_42.jpg","null","gym","G","non-repeat","null","144","stimuli/gym_42.jpg","","","","",""
"","","","","","image-keyboard-response","176","2.0.0","189493","p0hlt41tr55","pelican","null","stimuli/playground_11.jpg","null","playground","H","non-repeat","null","145","stimuli/playground_11.jpg","","","","",""
"","","","","","image-keyboard-response","177","2.0.0","190495","p0hlt41tr55","pelican","null","stimuli/bar_48.jpg","null","bar","I","non-repeat","null","146","stimuli/bar_48.jpg","","","","",""
"","","","","","image-keyboard-response","178","2.0.0","191499","p0hlt41tr55","pelican","null","stimuli/desert_23.jpg","null","desert","J","non-repeat","null","147","stimuli/desert_23.jpg","","","","",""
"","","","","","image-keyboard-response","179","2.0.0","192502","p0hlt41tr55","pelican","null","stimuli/coast_14.jpg","null","coast","K","non-repeat","null","148","stimuli/coast_14.jpg","","","","",""
"","","","","","image-keyboard-response","180","2.0.0","193504","p0hlt41tr55","pelican","null","stimuli/field_54.jpg","null","field","L","non-repeat","null","149","stimuli/field_54.jpg","","","","",""
"","","","","","image-keyboard-response","181","2.0.0","194507","p0hlt41tr55","pelican","754","stimuli/field_54.jpg"," ","field","L","repeat"," ","149","","","","","",""
"","","","","","image-keyboard-response","182","2.0.0","195511","p0hlt41tr55","pelican","null","stimuli/gym_42.jpg","null","gym","G","non-repeat","null","150","stimuli/gym_42.jpg","","","","",""
"","","","","","image-keyboard-response","183","2.0.0","196514","p0hlt41tr55","pelican","null","stimuli/playground_11.jpg","null","playground","H","non-repeat","null","151","stimuli/playground_11.jpg","","","","",""
"","","","","","image-keyboard-response","184","2.0.0","197516","p0hlt41tr55","pelican","null","stimuli/bar_48.jpg","null","bar","I","non-repeat","null","152","stimuli/bar_48.jpg","","","","",""
"","","","","","image-keyboard-response","185","2.0.0","198518","p0hlt41tr55","pelican","null","stimuli/desert_23.jpg","null","desert","J","non-repeat","null","153","stimuli/desert_23.jpg","","","","",""
"","","","","","image-keyboard-response","186","2.0.0","199520","p0hlt41tr55","pelican","null","stimuli/coast_14.jpg","null","coast","K","non-repeat","null","154","stimuli/coast_14.jpg","","","","",""
"","","","","","image-keyboard-response","187","2.0.0","200522","p0hlt41tr55","pelican","null","stimuli/field_54.jpg","null","field","L","non-repeat","null","155","stimuli/field_54.jpg","","","","",""
"","","","","","image-keyboard-response","188","2.0.0","201525","p0hlt41tr55","pelican","null","stimuli/bridge_8.jpg","null","bridge","A","non-repeat","null","156","stimuli/bridge_8.jpg","","","","",""
"","","","","","image-keyboard-response","189","2.0.0","202527","p0hlt41tr55","pelican","null","stimuli/stream_6.jpg","null","stream","B","non-repeat","null","157","stimuli/stream_6.jpg","","","","",""
"","","","","","image-keyboard-response","190","2.0.0","203530","p0hlt41tr55","pelican","null","stimuli/woods_28.jpg","null","woods","C","non-repeat","null","158","stimuli/woods_28.jpg","","","","",""
"","","","","","image-keyboard-response","191","2.0.0","204532","p0hlt41tr55","pelican","null","stimuli/gym_42.jpg","null","gym","G","non-repeat","null","159","stimuli/gym_42.jpg","","","","",""
"","","","","","image-keyboard-response","192","2.0.0","205536","p0hlt41tr55","pelican","null","stimuli/playground_11.jpg","null","playground","H","non-repeat","null","160","stimuli/playground_11.jpg","","","","",""
"","","","","","image-keyboard-response","193","2.0.0","206539","p0hlt41tr55","pelican","null","stimuli/bar_48.jpg","null","bar","I","non-repeat","null","161","stimuli/bar_48.jpg","","","","",""
"","","","","","image-keyboard-response","194","2.0.0","207543","p0hlt41tr55","pelican","null","stimuli/kitchen_41.jpg","null","kitchen","D","non-repeat","null","162","stimuli/kitchen_41.jpg","","","","",""
"","","","","","image-keyboard-response","195","2.0.0","208545","p0hlt41tr55","pelican","null","stimuli/street_54.jpg","null","street","E","non-repeat","null","163","stimuli/street_54.jpg","","","","",""
"","","","","","image-keyboard-response","196","2.0.0","209548","p0hlt41tr55","pelican","null","stimuli/bathroom_57.jpg","null","bathroom","F","non-repeat","null","164","stimuli/bathroom_57.jpg","","","","",""
"","","","","","image-keyboard-response","197","2.0.0","210552","p0hlt41tr55","pelican","null","stimuli/desert_23.jpg","null","desert","J","non-repeat","null","165","stimuli/desert_23.jpg","","","","",""
"","","","","","image-keyboard-response","198","2.0.0","211554","p0hlt41tr55","pelican","null","stimuli/coast_14.jpg","null","coast","K","non-repeat","null","166","stimuli/coast_14.jpg","","","","",""
"","","","","","image-keyboard-response","199","2.0.0","212557","p0hlt41tr55","pelican","null","stimuli/field_54.jpg","null","field","L","non-repeat","null","167","stimuli/field_54.jpg","","","","",""
"","","","","","image-keyboard-response","200","2.0.0","213560","p0hlt41tr55","pelican","null","stimuli/bridge_8.jpg","null","bridge","A","non-repeat","null","168","stimuli/bridge_8.jpg","","","","",""
"","","","","","image-keyboard-response","201","2.0.0","214563","p0hlt41tr55","pelican","null","stimuli/stream_6.jpg","null","stream","B","non-repeat","null","169","stimuli/stream_6.jpg","","","","",""
"","","","","","image-keyboard-response","202","2.0.0","215566","p0hlt41tr55","pelican","null","stimuli/woods_28.jpg","null","woods","C","non-repeat","null","170","stimuli/woods_28.jpg","","","","",""
"","","","","","image-keyboard-response","203","2.0.0","216568","p0hlt41tr55","pelican","null","stimuli/kitchen_41.jpg","null","kitchen","D","non-repeat","null","171","stimuli/kitchen_41.jpg","","","","",""
"","","","","","image-keyboard-response","204","2.0.0","217572","p0hlt41tr55","pelican","688","stimuli/kitchen_41.jpg"," ","kitchen","D","repeat"," ","171","","","","","",""
"","","","","","image-keyboard-response","205","2.0.0","218575","p0hlt41tr55","pelican","null","stimuli/street_54.jpg","null","street","E","non-repeat","null","172","stimuli/street_54.jpg","","","","",""
"","","","","","image-keyboard-response","206","2.0.0","219578","p0hlt41tr55","pelican","null","stimuli/bathroom_57.jpg","null","bathroom","F","non-repeat","null","173","stimuli/bathroom_57.jpg","","","","",""
"","","","","","image-keyboard-response","207","2.0.0","220581","p0hlt41tr55","pelican","null","stimuli/gym_42.jpg","null","gym","G","non-repeat","null","174","stimuli/gym_42.jpg","","","","",""
"","","","","","image-keyboard-response","208","2.0.0","221584","p0hlt41tr55","pelican","748","stimuli/gym_42.jpg"," ","gym","G","repeat"," ","174","","","","","",""
"","","","","","image-keyboard-response","209","2.0.0","222588","p0hlt41tr55","pelican","null","stimuli/playground_11.jpg","null","playground","H","non-repeat","null","175","stimuli/playground_11.jpg","","","","",""
"","","","","","image-keyboard-response","210","2.0.0","223591","p0hlt41tr55","pelican","null","stimuli/bar_48.jpg","null","bar","I","non-repeat","null","176","stimuli/bar_48.jpg","","","","",""
"","","","","","image-keyboard-response","211","2.0.0","224594","p0hlt41tr55","pelican","null","stimuli/desert_23.jpg","null","desert","J","non-repeat","null","177","stimuli/desert_23.jpg","","","","",""
"","","","","","image-keyboard-response","212","2.0.0","225597","p0hlt41tr55","pelican","null","stimuli/coast_14.jpg","null","coast","K","non-repeat","null","178","stimuli/coast_14.jpg","","","","",""
"","","","","","image-keyboard-response","213","2.0.0","226600","p0hlt41tr55","pelican","null","stimuli/field_54.jpg","null","field","L","non-repeat","null","179","stimuli/field_54.jpg","","","","",""
"","","","","","image-keyboard-response","214","2.0.0","227603","p0hlt41tr55","pelican","null","stimuli/bridge_8.jpg","null","bridge","A","non-repeat","null","180","stimuli/bridge_8.jpg","","","","",""
"","","","","","image-keyboard-response","215","2.0.0","228605","p0hlt41tr55","pelican","null","stimuli/stream_6.jpg","null","stream","B","non-repeat","null","181","stimuli/stream_6.jpg","","","","",""
"","","","","","image-keyboard-response","216","2.0.0","229609","p0hlt41tr55","pelican","null","stimuli/woods_28.jpg","null","woods","C","non-repeat","null","182","stimuli/woods_28.jpg","","","","",""
"","","","","","image-keyboard-response","217","2.0.0","230612","p0hlt41tr55","pelican","null","stimuli/kitchen_41.jpg","null","kitchen","D","non-repeat","null","183","stimuli/kitchen_41.jpg","","","","",""
"","","","","","image-keyboard-response","218","2.0.0","231614","p0hlt41tr55","pelican","null","stimuli/street_54.jpg","null","street","E","non-repeat","null","184","stimuli/street_54.jpg","","","","",""
"","","","","","image-keyboard-response","219","2.0.0","232616","p0hlt41tr55","pelican","null","stimuli/bathroom_57.jpg","null","bathroom","F","non-repeat","null","185","stimuli/bathroom_57.jpg","","","","",""
"","","","","","image-keyboard-response","220","2.0.0","233619","p0hlt41tr55","pelican","null","stimuli/desert_23.jpg","null","desert","J","non-repeat","null","186","stimuli/desert_23.jpg","","","","",""
"","","","","","image-keyboard-response","221","2.0.0","234621","p0hlt41tr55","pelican","null","stimuli/coast_14.jpg","null","coast","K","non-repeat","null","187","stimuli/coast_14.jpg","","","","",""
"","","","","","image-keyboard-response","222","2.0.0","235624","p0hlt41tr55","pelican","null","stimuli/field_54.jpg","null","field","L","non-repeat","null","188","stimuli/field_54.jpg","","","","",""
"","","","","","image-keyboard-response","223","2.0.0","236626","p0hlt41tr55","pelican","null","stimuli/gym_42.jpg","null","gym","G","non-repeat","null","189","stimuli/gym_42.jpg","","","","",""
"","","","","","image-keyboard-response","224","2.0.0","237628","p0hlt41tr55","pelican","null","stimuli/playground_11.jpg","null","playground","H","non-repeat","null","190","stimuli/playground_11.jpg","","","","",""
"","","","","","image-keyboard-response","225","2.0.0","238632","p0hlt41tr55","pelican","null","stimuli/bar_48.jpg","null","bar","I","non-repeat","null","191","stimuli/bar_48.jpg","","","","",""
"","","","","","image-keyboard-response","226","2.0.0","239634","p0hlt41tr55","pelican","null","stimuli/bridge_8.jpg","null","bridge","A","non-repeat","null","192","stimuli/bridge_8.jpg","","","","",""
"","","","","","image-keyboard-response","227","2.0.0","240636","p0hlt41tr55","pelican","null","stimuli/stream_6.jpg","null","stream","B","non-repeat","null","193","stimuli/stream_6.jpg","","","","",""
"","","","","","image-keyboard-response","228","2.0.0","241638","p0hlt41tr55","pelican","null","stimuli/woods_28.jpg","null","woods","C","non-repeat","null","194","stimuli/woods_28.jpg","","","","",""
"","","","","","image-keyboard-response","229","2.0.0","242641","p0hlt41tr55","pelican","null","stimuli/kitchen_41.jpg","null","kitchen","D","non-repeat","null","195","stimuli/kitchen_41.jpg","","","","",""
"","","","","","image-keyboard-response","230","2.0.0","243643","p0hlt41tr55","pelican","null","stimuli/street_54.jpg","null","street","E","non-repeat","null","196","stimuli/street_54.jpg","","","","",""
"","","","","","image-keyboard-response","231","2.0.0","244645","p0hlt41tr55","pelican","null","stimuli/bathroom_57.jpg","null","bathroom","F","non-repeat","null","197","stimuli/bathroom_57.jpg","","","","",""
"","","","","","image-keyboard-response","232","2.0.0","245647","p0hlt41tr55","pelican","null","stimuli/gym_42.jpg","null","gym","G","non-repeat","null","198","stimuli/gym_42.jpg","","","","",""
"","","","","","image-keyboard-response","233","2.0.0","246650","p0hlt41tr55","pelican","null","stimuli/playground_11.jpg","null","playground","H","non-repeat","null","199","stimuli/playground_11.jpg","","","","",""
"","","","","","image-keyboard-response","234","2.0.0","247652","p0hlt41tr55","pelican","null","stimuli/bar_48.jpg","null","bar","I","non-repeat","null","200","stimuli/bar_48.jpg","","","","",""
"","","","","","image-keyboard-response","235","2.0.0","248654","p0hlt41tr55","pelican","761","stimuli/bar_48.jpg"," ","bar","I","repeat"," ","200","","","","","",""
"","","","","","image-keyboard-response","236","2.0.0","249657","p0hlt41tr55","pelican","null","stimuli/bridge_8.jpg","null","bridge","A","non-repeat","null","201","stimuli/bridge_8.jpg","","","","",""
"","","","","","image-keyboard-response","237","2.0.0","250659","p0hlt41tr55","pelican","null","stimuli/stream_6.jpg","null","stream","B","non-repeat","null","202","stimuli/stream_6.jpg","","","","",""
"","","","","","image-keyboard-response","238","2.0.0","251663","p0hlt41tr55","pelican","null","stimuli/woods_28.jpg","null","woods","C","non-repeat","null","203","stimuli/woods_28.jpg","","","","",""
"","","","","","image-keyboard-response","239","2.0.0","252666","p0hlt41tr55","pelican","null","stimuli/desert_23.jpg","null","desert","J","non-repeat","null","204","stimuli/desert_23.jpg","","","","",""
"","","","","","image-keyboard-response","240","2.0.0","253669","p0hlt41tr55","pelican","null","stimuli/coast_14.jpg","null","coast","K","non-repeat","null","205","stimuli/coast_14.jpg","","","","",""
"","","","","","image-keyboard-response","241","2.0.0","254673","p0hlt41tr55","pelican","null","stimuli/field_54.jpg","null","field","L","non-repeat","null","206","stimuli/field_54.jpg","","","","",""
"","","","","","image-keyboard-response","242","2.0.0","255677","p0hlt41tr55","pelican","null","stimuli/kitchen_41.jpg","null","kitchen","D","non-repeat","null","207","stimuli/kitchen_41.jpg","","","","",""
"","","","","","image-keyboard-response","243","2.0.0","256680","p0hlt41tr55","pelican","null","stimuli/kitchen_41.jpg","null","kitchen","D","repeat"," ","207","","","","","",""
"","","","","","image-keyboard-response","244","2.0.0","257683","p0hlt41tr55","pelican","12","stimuli/street_54.jpg"," ","street","E","non-repeat","null","208","stimuli/street_54.jpg","","","","",""
"","","","","","image-keyboard-response","245","2.0.0","258687","p0hlt41tr55","pelican","null","stimuli/bathroom_57.jpg","null","bathroom","F","non-repeat","null","209","stimuli/bathroom_57.jpg","","","","",""
"","","","","","image-keyboard-response","246","2.0.0","259689","p0hlt41tr55","pelican","null","stimuli/gym_42.jpg","null","gym","G","non-repeat","null","210","stimuli/gym_42.jpg","","","","",""
"","","","","","image-keyboard-response","247","2.0.0","260691","p0hlt41tr55","pelican","null","stimuli/playground_11.jpg","null","playground","H","non-repeat","null","211","stimuli/playground_11.jpg","","","","",""
"","","","","","image-keyboard-response","248","2.0.0","261695","p0hlt41tr55","pelican","null","stimuli/bar_48.jpg","null","bar","I","non-repeat","null","212","stimuli/bar_48.jpg","","","","",""
"","","","","","image-keyboard-response","249","2.0.0","262699","p0hlt41tr55","pelican","788","stimuli/bar_48.jpg"," ","bar","I","repeat"," ","212","","","","","",""
"","","","","","image-keyboard-response","250","2.0.0","263701","p0hlt41tr55","pelican","null","stimuli/desert_23.jpg","null","desert","J","non-repeat","null","213","stimuli/desert_23.jpg","","","","",""
"","","","","","image-keyboard-response","251","2.0.0","264704","p0hlt41tr55","pelican","689","stimuli/desert_23.jpg"," ","desert","J","repeat"," ","213","","","","","",""
"","","","","","image-keyboard-response","252","2.0.0","265707","p0hlt41tr55","pelican","null","stimuli/coast_14.jpg","null","coast","K","non-repeat","null","214","stimuli/coast_14.jpg","","","","",""
"","","","","","image-keyboard-response","253","2.0.0","266711","p0hlt41tr55","pelican","null","stimuli/field_54.jpg","null","field","L","non-repeat","null","215","stimuli/field_54.jpg","","","","",""
"","","","","","image-keyboard-response","254","2.0.0","267714","p0hlt41tr55","pelican","575","stimuli/field_54.jpg"," ","field","L","repeat"," ","215","","","","","",""
"","","","","","image-keyboard-response","255","2.0.0","268718","p0hlt41tr55","pelican","null","stimuli/kitchen_41.jpg","null","kitchen","D","non-repeat","null","216","stimuli/kitchen_41.jpg","","","","",""
"","","","","","image-keyboard-response","256","2.0.0","269720","p0hlt41tr55","pelican","null","stimuli/street_54.jpg","null","street","E","non-repeat","null","217","stimuli/street_54.jpg","","","","",""
"","","","","","image-keyboard-response","257","2.0.0","270723","p0hlt41tr55","pelican","null","stimuli/bathroom_57.jpg","null","bathroom","F","non-repeat","null","218","stimuli/bathroom_57.jpg","","","","",""
"","","","","","image-keyboard-response","258","2.0.0","271727","p0hlt41tr55","pelican","533","stimuli/bathroom_57.jpg"," ","bathroom","F","repeat"," ","218","","","","","",""
"","","","","","image-keyboard-response","259","2.0.0","272730","p0hlt41tr55","pelican","null","stimuli/gym_42.jpg","null","gym","G","non-repeat","null","219","stimuli/gym_42.jpg","","","","",""
"","","","","","image-keyboard-response","260","2.0.0","273733","p0hlt41tr55","pelican","null","stimuli/playground_11.jpg","null","playground","H","non-repeat","null","220","stimuli/playground_11.jpg","","","","",""
"","","","","","image-keyboard-response","261","2.0.0","274736","p0hlt41tr55","pelican","null","stimuli/bar_48.jpg","null","bar","I","non-repeat","null","221","stimuli/bar_48.jpg","","","","",""
"","","","","","image-keyboard-response","262","2.0.0","275740","p0hlt41tr55","pelican","448","stimuli/bar_48.jpg"," ","bar","I","repeat"," ","221","","","","","",""
"","","","","","image-keyboard-response","263","2.0.0","276743","p0hlt41tr55","pelican","null","stimuli/kitchen_41.jpg","null","kitchen","D","non-repeat","null","222","stimuli/kitchen_41.jpg","","","","",""
"","","","","","image-keyboard-response","264","2.0.0","277745","p0hlt41tr55","pelican","null","stimuli/street_54.jpg","null","street","E","non-repeat","null","223","stimuli/street_54.jpg","","","","",""
"","","","","","image-keyboard-response","265","2.0.0","278748","p0hlt41tr55","pelican","null","stimuli/bathroom_57.jpg","null","bathroom","F","non-repeat","null","224","stimuli/bathroom_57.jpg","","","","",""
"","","","","","image-keyboard-response","266","2.0.0","279751","p0hlt41tr55","pelican","null","stimuli/desert_23.jpg","null","desert","J","non-repeat","null","225","stimuli/desert_23.jpg","","","","",""
"","","","","","image-keyboard-response","267","2.0.0","280755","p0hlt41tr55","pelican","596","stimuli/desert_23.jpg"," ","desert","J","repeat"," ","225","","","","","",""
"","","","","","image-keyboard-response","268","2.0.0","281758","p0hlt41tr55","pelican","null","stimuli/coast_14.jpg","null","coast","K","non-repeat","null","226","stimuli/coast_14.jpg","","","","",""
"","","","","","image-keyboard-response","269","2.0.0","282761","p0hlt41tr55","pelican","null","stimuli/field_54.jpg","null","field","L","non-repeat","null","227","stimuli/field_54.jpg","","","","",""
"","","","","","image-keyboard-response","270","2.0.0","283763","p0hlt41tr55","pelican","null","stimuli/bridge_8.jpg","null","bridge","A","non-repeat","null","228","stimuli/bridge_8.jpg","","","","",""
"","","","","","image-keyboard-response","271","2.0.0","284767","p0hlt41tr55","pelican","null","stimuli/stream_6.jpg","null","stream","B","non-repeat","null","229","stimuli/stream_6.jpg","","","","",""
"","","","","","image-keyboard-response","272","2.0.0","285770","p0hlt41tr55","pelican","null","stimuli/woods_28.jpg","null","woods","C","non-repeat","null","230","stimuli/woods_28.jpg","","","","",""
"","","","","","image-keyboard-response","273","2.0.0","286773","p0hlt41tr55","pelican","null","stimuli/desert_23.jpg","null","desert","J","non-repeat","null","231","stimuli/desert_23.jpg","","","","",""
"","","","","","image-keyboard-response","274","2.0.0","287776","p0hlt41tr55","pelican","719","stimuli/desert_23.jpg"," ","desert","J","repeat"," ","231","","","","","",""
"","","","","","image-keyboard-response","275","2.0.0","288780","p0hlt41tr55","pelican","null","stimuli/coast_14.jpg","null","coast","K","non-repeat","null","232","stimuli/coast_14.jpg","","","","",""
"","","","","","image-keyboard-response","276","2.0.0","289783","p0hlt41tr55","pelican","null","stimuli/field_54.jpg","null","field","L","non-repeat","null","233","stimuli/field_54.jpg","","","","",""
"","","","","","image-keyboard-response","277","2.0.0","290786","p0hlt41tr55","pelican","null","stimuli/bridge_8.jpg","null","bridge","A","non-repeat","null","234","stimuli/bridge_8.jpg","","","","",""
"","","","","","image-keyboard-response","278","2.0.0","291787","p0hlt41tr55","pelican","null","stimuli/stream_6.jpg","null","stream","B","non-repeat","null","235","stimuli/stream_6.jpg","","","","",""
"","","","","","image-keyboard-response","279","2.0.0","292790","p0hlt41tr55","pelican","null","stimuli/woods_28.jpg","null","woods","C","non-repeat","null","236","stimuli/woods_28.jpg","","","","",""
"","","","","","image-keyboard-response","280","2.0.0","293793","p0hlt41tr55","pelican","null","stimuli/gym_42.jpg","null","gym","G","non-repeat","null","237","stimuli/gym_42.jpg","","","","",""
"","","","","","image-keyboard-response","281","2.0.0","294795","p0hlt41tr55","pelican","626","stimuli/gym_42.jpg"," ","gym","G","repeat"," ","237","","","","","",""
"","","","","","image-keyboard-response","282","2.0.0","295798","p0hlt41tr55","pelican","null","stimuli/playground_11.jpg","null","playground","H","non-repeat","null","238","stimuli/playground_11.jpg","","","","",""
"","","","","","image-keyboard-response","283","2.0.0","296800","p0hlt41tr55","pelican","null","stimuli/bar_48.jpg","null","bar","I","non-repeat","null","239","stimuli/bar_48.jpg","","","","",""
"","","","","","image-keyboard-response","284","2.0.0","297802","p0hlt41tr55","pelican","null","stimuli/bar_48.jpg","null","bar","I","repeat"," ","239","","","","","",""
"","","","","","image-keyboard-response","285","2.0.0","298805","p0hlt41tr55","pelican","null","stimuli/kitchen_41.jpg","null","kitchen","D","non-repeat","null","240","stimuli/kitchen_41.jpg","","","","",""
"","","","","","image-keyboard-response","286","2.0.0","299807","p0hlt41tr55","pelican","null","stimuli/street_54.jpg","null","street","E","non-repeat","null","241","stimuli/street_54.jpg","","","","",""
"","","","","","image-keyboard-response","287","2.0.0","300811","p0hlt41tr55","pelican","null","stimuli/bathroom_57.jpg","null","bathroom","F","non-repeat","null","242","stimuli/bathroom_57.jpg","","","","",""
"","","","","","image-keyboard-response","288","2.0.0","301822","p0hlt41tr55","pelican","null","stimuli/desert_23.jpg","null","desert","J","non-repeat","null","243","stimuli/desert_23.jpg","","","","",""
"","","","","","image-keyboard-response","289","2.0.0","302823","p0hlt41tr55","pelican","673","stimuli/desert_23.jpg"," ","desert","J","repeat"," ","243","","","","","",""
"","","","","","image-keyboard-response","290","2.0.0","303825","p0hlt41tr55","pelican","null","stimuli/coast_14.jpg","null","coast","K","non-repeat","null","244","stimuli/coast_14.jpg","","","","",""
"","","","","","image-keyboard-response","291","2.0.0","304828","p0hlt41tr55","pelican","null","stimuli/field_54.jpg","null","field","L","non-repeat","null","245","stimuli/field_54.jpg","","","","",""
"","","","","","image-keyboard-response","292","2.0.0","305829","p0hlt41tr55","pelican","null","stimuli/bridge_8.jpg","null","bridge","A","non-repeat","null","246","stimuli/bridge_8.jpg","","","","",""
"","","","","","image-keyboard-response","293","2.0.0","306832","p0hlt41tr55","pelican","null","stimuli/stream_6.jpg","null","stream","B","non-repeat","null","247","stimuli/stream_6.jpg","","","","",""
"","","","","","image-keyboard-response","294","2.0.0","307834","p0hlt41tr55","pelican","null","stimuli/woods_28.jpg","null","woods","C","non-repeat","null","248","stimuli/woods_28.jpg","","","","",""
"","","","","","image-keyboard-response","295","2.0.0","308836","p0hlt41tr55","pelican","null","stimuli/woods_28.jpg","null","woods","C","repeat"," ","248","","","","","",""
"","","","","","image-keyboard-response","296","2.0.0","309839","p0hlt41tr55","pelican","null","stimuli/desert_23.jpg","null","desert","J","non-repeat","null","249","stimuli/desert_23.jpg","","","","",""
"","","","","","image-keyboard-response","297","2.0.0","310840","p0hlt41tr55","pelican","null","stimuli/coast_14.jpg","null","coast","K","non-repeat","null","250","stimuli/coast_14.jpg","","","","",""
"","","","","","image-keyboard-response","298","2.0.0","311842","p0hlt41tr55","pelican","null","stimuli/field_54.jpg","null","field","L","non-repeat","null","251","stimuli/field_54.jpg","","","","",""
"","","","","","image-keyboard-response","299","2.0.0","312846","p0hlt41tr55","pelican","null","stimuli/field_54.jpg","null","field","L","repeat"," ","251","","","","","",""
"","","","","","image-keyboard-response","300","2.0.0","313849","p0hlt41tr55","pelican","null","stimuli/gym_42.jpg","null","gym","G","non-repeat","null","252","stimuli/gym_42.jpg","","","","",""
"","","","","","image-keyboard-response","301","2.0.0","314852","p0hlt41tr55","pelican","null","stimuli/playground_11.jpg","null","playground","H","non-repeat","null","253","stimuli/playground_11.jpg","","","","",""
"","","","","","image-keyboard-response","302","2.0.0","315855","p0hlt41tr55","pelican","null","stimuli/bar_48.jpg","null","bar","I","non-repeat","null","254","stimuli/bar_48.jpg","","","","",""
"","","","","","image-keyboard-response","303","2.0.0","316858","p0hlt41tr55","pelican","null","stimuli/desert_23.jpg","null","desert","J","non-repeat","null","255","stimuli/desert_23.jpg","","","","",""
"","","","","","image-keyboard-response","304","2.0.0","317861","p0hlt41tr55","pelican","null","stimuli/coast_14.jpg","null","coast","K","non-repeat","null","256","stimuli/coast_14.jpg","","","","",""
"","","","","","image-keyboard-response","305","2.0.0","318864","p0hlt41tr55","pelican","null","stimuli/field_54.jpg","null","field","L","non-repeat","null","257","stimuli/field_54.jpg","","","","",""
"","","","","","image-keyboard-response","306","2.0.0","319867","p0hlt41tr55","pelican","null","stimuli/bridge_8.jpg","null","bridge","A","non-repeat","null","258","stimuli/bridge_8.jpg","","","","",""
"","","","","","image-keyboard-response","307","2.0.0","320870","p0hlt41tr55","pelican","null","stimuli/stream_6.jpg","null","stream","B","non-repeat","null","259","stimuli/stream_6.jpg","","","","",""
"","","","","","image-keyboard-response","308","2.0.0","321873","p0hlt41tr55","pelican","null","stimuli/woods_28.jpg","null","woods","C","non-repeat","null","260","stimuli/woods_28.jpg","","","","",""
"","","","","","image-keyboard-response","309","2.0.0","322876","p0hlt41tr55","pelican","null","stimuli/kitchen_41.jpg","null","kitchen","D","non-repeat","null","261","stimuli/kitchen_41.jpg","","","","",""
"","","","","","image-keyboard-response","310","2.0.0","323878","p0hlt41tr55","pelican","null","stimuli/street_54.jpg","null","street","E","non-repeat","null","262","stimuli/street_54.jpg","","","","",""
"","","","","","image-keyboard-response","311","2.0.0","324880","p0hlt41tr55","pelican","null","stimuli/bathroom_57.jpg","null","bathroom","F","non-repeat","null","263","stimuli/bathroom_57.jpg","","","","",""
"","","","","","image-keyboard-response","312","2.0.0","325884","p0hlt41tr55","pelican","null","stimuli/bridge_8.jpg","null","bridge","A","non-repeat","null","264","stimuli/bridge_8.jpg","","","","",""
"","","","","","image-keyboard-response","313","2.0.0","326887","p0hlt41tr55","pelican","null","stimuli/stream_6.jpg","null","stream","B","non-repeat","null","265","stimuli/stream_6.jpg","","","","",""
"","","","","","image-keyboard-response","314","2.0.0","327890","p0hlt41tr55","pelican","null","stimuli/woods_28.jpg","null","woods","C","non-repeat","null","266","stimuli/woods_28.jpg","","","","",""
"","","","","","image-keyboard-response","315","2.0.0","328893","p0hlt41tr55","pelican","null","stimuli/gym_42.jpg","null","gym","G","non-repeat","null","267","stimuli/gym_42.jpg","","","","",""
"","","","","","image-keyboard-response","316","2.0.0","329895","p0hlt41tr55","pelican","null","stimuli/playground_11.jpg","null","playground","H","non-repeat","null","268","stimuli/playground_11.jpg","","","","",""
"","","","","","image-keyboard-response","317","2.0.0","330897","p0hlt41tr55","pelican","null","stimuli/bar_48.jpg","null","bar","I","non-repeat","null","269","stimuli/bar_48.jpg","","","","",""
"","","","","","image-keyboard-response","318","2.0.0","331900","p0hlt41tr55","pelican","null","stimuli/bar_48.jpg","null","bar","I","repeat"," ","269","","","","","",""
"","","","","","image-keyboard-response","319","2.0.0","332903","p0hlt41tr55","pelican","null","stimuli/bridge_8.jpg","null","bridge","A","non-repeat","null","270","stimuli/bridge_8.jpg","","","","",""
"","","","","","image-keyboard-response","320","2.0.0","333907","p0hlt41tr55","pelican","null","stimuli/stream_6.jpg","null","stream","B","non-repeat","null","271","stimuli/stream_6.jpg","","","","",""
"","","","","","image-keyboard-response","321","2.0.0","334908","p0hlt41tr55","pelican","null","stimuli/woods_28.jpg","null","woods","C","non-repeat","null","272","stimuli/woods_28.jpg","","","","",""
"","","","","","image-keyboard-response","322","2.0.0","335912","p0hlt41tr55","pelican","null","stimuli/kitchen_41.jpg","null","kitchen","D","non-repeat","null","273","stimuli/kitchen_41.jpg","","","","",""
"","","","","","image-keyboard-response","323","2.0.0","336914","p0hlt41tr55","pelican","null","stimuli/street_54.jpg","null","street","E","non-repeat","null","274","stimuli/street_54.jpg","","","","",""
"","","","","","image-keyboard-response","324","2.0.0","337916","p0hlt41tr55","pelican","null","stimuli/bathroom_57.jpg","null","bathroom","F","non-repeat","null","275","stimuli/bathroom_57.jpg","","","","",""
"","","","","","image-keyboard-response","325","2.0.0","338919","p0hlt41tr55","pelican","null","stimuli/desert_23.jpg","null","desert","J","non-repeat","null","276","stimuli/desert_23.jpg","","","","",""
"","","","","","image-keyboard-response","326","2.0.0","339922","p0hlt41tr55","pelican","null","stimuli/coast_14.jpg","null","coast","K","non-repeat","null","277","stimuli/coast_14.jpg","","","","",""
"","","","","","image-keyboard-response","327","2.0.0","340926","p0hlt41tr55","pelican","null","stimuli/field_54.jpg","null","field","L","non-repeat","null","278","stimuli/field_54.jpg","","","","",""
"","","","","","image-keyboard-response","328","2.0.0","341929","p0hlt41tr55","pelican","null","stimuli/kitchen_41.jpg","null","kitchen","D","non-repeat","null","279","stimuli/kitchen_41.jpg","","","","",""
"","","","","","image-keyboard-response","329","2.0.0","342933","p0hlt41tr55","pelican","null","stimuli/street_54.jpg","null","street","E","non-repeat","null","280","stimuli/street_54.jpg","","","","",""
"","","","","","image-keyboard-response","330","2.0.0","343935","p0hlt41tr55","pelican","null","stimuli/bathroom_57.jpg","null","bathroom","F","non-repeat","null","281","stimuli/bathroom_57.jpg","","","","",""
"","","","","","image-keyboard-response","331","2.0.0","344937","p0hlt41tr55","pelican","493","stimuli/bathroom_57.jpg"," ","bathroom","F","repeat"," ","281","","","","","",""
"","","","","","image-keyboard-response","332","2.0.0","345941","p0hlt41tr55","pelican","null","stimuli/bridge_8.jpg","null","bridge","A","non-repeat","null","282","stimuli/bridge_8.jpg","","","","",""
"","","","","","image-keyboard-response","333","2.0.0","346944","p0hlt41tr55","pelican","null","stimuli/stream_6.jpg","null","stream","B","non-repeat","null","283","stimuli/stream_6.jpg","","","","",""
"","","","","","image-keyboard-response","334","2.0.0","347947","p0hlt41tr55","pelican","null","stimuli/woods_28.jpg","null","woods","C","non-repeat","null","284","stimuli/woods_28.jpg","","","","",""
"","","","","","image-keyboard-response","335","2.0.0","348950","p0hlt41tr55","pelican","null","stimuli/gym_42.jpg","null","gym","G","non-repeat","null","285","stimuli/gym_42.jpg","","","","",""
"","","","","","image-keyboard-response","336","2.0.0","349953","p0hlt41tr55","pelican","706","stimuli/gym_42.jpg"," ","gym","G","repeat"," ","285","","","","","",""
"","","","","","image-keyboard-response","337","2.0.0","350954","p0hlt41tr55","pelican","null","stimuli/playground_11.jpg","null","playground","H","non-repeat","null","286","stimuli/playground_11.jpg","","","","",""
"","","","","","image-keyboard-response","338","2.0.0","351957","p0hlt41tr55","pelican","null","stimuli/bar_48.jpg","null","bar","I","non-repeat","null","287","stimuli/bar_48.jpg","","","","",""
"","","","","","image-keyboard-response","339","2.0.0","352960","p0hlt41tr55","pelican","null","stimuli/desert_23.jpg","null","desert","J","non-repeat","null","288","stimuli/desert_23.jpg","","","","",""
"","","","","","image-keyboard-response","340","2.0.0","353962","p0hlt41tr55","pelican","null","stimuli/coast_14.jpg","null","coast","K","non-repeat","null","289","stimuli/coast_14.jpg","","","","",""
"","","","","","image-keyboard-response","341","2.0.0","354965","p0hlt41tr55","pelican","null","stimuli/field_54.jpg","null","field","L","non-repeat","null","290","stimuli/field_54.jpg","","","","",""
"","","","","","image-keyboard-response","342","2.0.0","355966","p0hlt41tr55","pelican","null","stimuli/kitchen_41.jpg","null","kitchen","D","non-repeat","null","291","stimuli/kitchen_41.jpg","","","","",""
"","","","","","image-keyboard-response","343","2.0.0","356968","p0hlt41tr55","pelican","null","stimuli/street_54.jpg","null","street","E","non-repeat","null","292","stimuli/street_54.jpg","","","","",""
"","","","","","image-keyboard-response","344","2.0.0","357970","p0hlt41tr55","pelican","605","stimuli/bathroom_57.jpg"," ","bathroom","F","non-repeat","null","293","stimuli/bathroom_57.jpg","","","","",""
"","","","","","image-keyboard-response","345","2.0.0","358972","p0hlt41tr55","pelican","null","stimuli/desert_23.jpg","null","desert","J","non-repeat","null","294","stimuli/desert_23.jpg","","","","",""
"","","","","","image-keyboard-response","346","2.0.0","359975","p0hlt41tr55","pelican","null","stimuli/coast_14.jpg","null","coast","K","non-repeat","null","295","stimuli/coast_14.jpg","","","","",""
"","","","","","image-keyboard-response","347","2.0.0","360977","p0hlt41tr55","pelican","null","stimuli/field_54.jpg","null","field","L","non-repeat","null","296","stimuli/field_54.jpg","","","","",""
"","","","","","image-keyboard-response","348","2.0.0","361978","p0hlt41tr55","pelican","null","stimuli/bridge_8.jpg","null","bridge","A","non-repeat","null","297","stimuli/bridge_8.jpg","","","","",""
"","","","","","image-keyboard-response","349","2.0.0","362981","p0hlt41tr55","pelican","null","stimuli/stream_6.jpg","null","stream","B","non-repeat","null","298","stimuli/stream_6.jpg","","","","",""
"","","","","","image-keyboard-response","350","2.0.0","363983","p0hlt41tr55","pelican","null","stimuli/woods_28.jpg","null","woods","C","non-repeat","null","299","stimuli/woods_28.jpg","","","","",""
"","","","","","image-keyboard-response","351","2.0.0","364985","p0hlt41tr55","pelican","null","stimuli/gym_42.jpg","null","gym","G","non-repeat","null","300","stimuli/gym_42.jpg","","","","",""
"","","","","","image-keyboard-response","352","2.0.0","365987","p0hlt41tr55","pelican","null","stimuli/gym_42.jpg","null","gym","G","repeat"," ","300","","","","","",""
"","","","","","image-keyboard-response","353","2.0.0","366989","p0hlt41tr55","pelican","null","stimuli/playground_11.jpg","null","playground","H","non-repeat","null","301","stimuli/playground_11.jpg","","","","",""
"","","","","","image-keyboard-response","354","2.0.0","367991","p0hlt41tr55","pelican","null","stimuli/bar_48.jpg","null","bar","I","non-repeat","null","302","stimuli/bar_48.jpg","","","","",""
"","","","","","image-keyboard-response","355","2.0.0","368994","p0hlt41tr55","pelican","null","stimuli/kitchen_41.jpg","null","kitchen","D","non-repeat","null","303","stimuli/kitchen_41.jpg","","","","",""
"","","","","","image-keyboard-response","356","2.0.0","369996","p0hlt41tr55","pelican","null","stimuli/street_54.jpg","null","street","E","non-repeat","null","304","stimuli/street_54.jpg","","","","",""
"","","","","","image-keyboard-response","357","2.0.0","370999","p0hlt41tr55","pelican","null","stimuli/bathroom_57.jpg","null","bathroom","F","non-repeat","null","305","stimuli/bathroom_57.jpg","","","","",""
"","","","","","image-keyboard-response","358","2.0.0","372001","p0hlt41tr55","pelican","null","stimuli/desert_23.jpg","null","desert","J","non-repeat","null","306","stimuli/desert_23.jpg","","","","",""
"","","","","","image-keyboard-response","359","2.0.0","373004","p0hlt41tr55","pelican","null","stimuli/coast_14.jpg","null","coast","K","non-repeat","null","307","stimuli/coast_14.jpg","","","","",""
"","","","","","image-keyboard-response","360","2.0.0","374007","p0hlt41tr55","pelican","null","stimuli/field_54.jpg","null","field","L","non-repeat","null","308","stimuli/field_54.jpg","","","","",""
"","","","","","image-keyboard-response","361","2.0.0","375010","p0hlt41tr55","pelican","null","stimuli/bridge_8.jpg","null","bridge","A","non-repeat","null","309","stimuli/bridge_8.jpg","","","","",""
"","","","","","image-keyboard-response","362","2.0.0","376012","p0hlt41tr55","pelican","null","stimuli/stream_6.jpg","null","stream","B","non-repeat","null","310","stimuli/stream_6.jpg","","","","",""
"","","","","","image-keyboard-response","363","2.0.0","377016","p0hlt41tr55","pelican","null","stimuli/woods_28.jpg","null","woods","C","non-repeat","null","311","stimuli/woods_28.jpg","","","","",""
"","","","","","image-keyboard-response","364","2.0.0","378019","p0hlt41tr55","pelican","null","stimuli/kitchen_41.jpg","null","kitchen","D","non-repeat","null","312","stimuli/kitchen_41.jpg","","","","",""
"","","","","","image-keyboard-response","365","2.0.0","379022","p0hlt41tr55","pelican","596","stimuli/kitchen_41.jpg"," ","kitchen","D","repeat"," ","312","","","","","",""
"","","","","","image-keyboard-response","366","2.0.0","380024","p0hlt41tr55","pelican","null","stimuli/street_54.jpg","null","street","E","non-repeat","null","313","stimuli/street_54.jpg","","","","",""
"","","","","","image-keyboard-response","367","2.0.0","381027","p0hlt41tr55","pelican","null","stimuli/bathroom_57.jpg","null","bathroom","F","non-repeat","null","314","stimuli/bathroom_57.jpg","","","","",""
"","","","","","image-keyboard-response","368","2.0.0","382030","p0hlt41tr55","pelican","null","stimuli/desert_23.jpg","null","desert","J","non-repeat","null","315","stimuli/desert_23.jpg","","","","",""
"","","","","","image-keyboard-response","369","2.0.0","383034","p0hlt41tr55","pelican","null","stimuli/coast_14.jpg","null","coast","K","non-repeat","null","316","stimuli/coast_14.jpg","","","","",""
"","","","","","image-keyboard-response","370","2.0.0","384037","p0hlt41tr55","pelican","null","stimuli/field_54.jpg","null","field","L","non-repeat","null","317","stimuli/field_54.jpg","","","","",""
"","","","","","image-keyboard-response","371","2.0.0","385040","p0hlt41tr55","pelican","null","stimuli/bridge_8.jpg","null","bridge","A","non-repeat","null","318","stimuli/bridge_8.jpg","","","","",""
"","","","","","image-keyboard-response","372","2.0.0","386043","p0hlt41tr55","pelican","null","stimuli/stream_6.jpg","null","stream","B","non-repeat","null","319","stimuli/stream_6.jpg","","","","",""
"","","","","","image-keyboard-response","373","2.0.0","387046","p0hlt41tr55","pelican","null","stimuli/woods_28.jpg","null","woods","C","non-repeat","null","320","stimuli/woods_28.jpg","","","","",""
"","","","","","image-keyboard-response","374","2.0.0","388049","p0hlt41tr55","pelican","null","stimuli/kitchen_41.jpg","null","kitchen","D","non-repeat","null","321","stimuli/kitchen_41.jpg","","","","",""
"","","","","","image-keyboard-response","375","2.0.0","389052","p0hlt41tr55","pelican","null","stimuli/street_54.jpg","null","street","E","non-repeat","null","322","stimuli/street_54.jpg","","","","",""
"","","","","","image-keyboard-response","376","2.0.0","390055","p0hlt41tr55","pelican","null","stimuli/bathroom_57.jpg","null","bathroom","F","non-repeat","null","323","stimuli/bathroom_57.jpg","","","","",""
"","","","","","image-keyboard-response","377","2.0.0","391058","p0hlt41tr55","pelican","null","stimuli/desert_23.jpg","null","desert","J","non-repeat","null","324","stimuli/desert_23.jpg","","","","",""
"","","","","","image-keyboard-response","378","2.0.0","392060","p0hlt41tr55","pelican","null","stimuli/coast_14.jpg","null","coast","K","non-repeat","null","325","stimuli/coast_14.jpg","","","","",""
"","","","","","image-keyboard-response","379","2.0.0","393063","p0hlt41tr55","pelican","null","stimuli/field_54.jpg","null","field","L","non-repeat","null","326","stimuli/field_54.jpg","","","","",""
"","","","","","image-keyboard-response","380","2.0.0","394067","p0hlt41tr55","pelican","null","stimuli/bridge_8.jpg","null","bridge","A","non-repeat","null","327","stimuli/bridge_8.jpg","","","","",""
"","","","","","image-keyboard-response","381","2.0.0","395070","p0hlt41tr55","pelican","null","stimuli/stream_6.jpg","null","stream","B","non-repeat","null","328","stimuli/stream_6.jpg","","","","",""
"","","","","","image-keyboard-response","382","2.0.0","396072","p0hlt41tr55","pelican","null","stimuli/woods_28.jpg","null","woods","C","non-repeat","null","329","stimuli/woods_28.jpg","","","","",""
"","","","","","image-keyboard-response","383","2.0.0","397074","p0hlt41tr55","pelican","null","stimuli/kitchen_41.jpg","null","kitchen","D","non-repeat","null","330","stimuli/kitchen_41.jpg","","","","",""
"","","","","","image-keyboard-response","384","2.0.0","398076","p0hlt41tr55","pelican","null","stimuli/kitchen_41.jpg","null","kitchen","D","repeat"," ","330","","","","","",""
"","","","","","image-keyboard-response","385","2.0.0","399080","p0hlt41tr55","pelican","34","stimuli/street_54.jpg"," ","street","E","non-repeat","null","331","stimuli/street_54.jpg","","","","",""
"","","","","","image-keyboard-response","386","2.0.0","400082","p0hlt41tr55","pelican","null","stimuli/bathroom_57.jpg","null","bathroom","F","non-repeat","null","332","stimuli/bathroom_57.jpg","","","","",""
"","","","","","image-keyboard-response","387","2.0.0","401086","p0hlt41tr55","pelican","null","stimuli/gym_42.jpg","null","gym","G","non-repeat","null","333","stimuli/gym_42.jpg","","","","",""
"","","","","","image-keyboard-response","388","2.0.0","402088","p0hlt41tr55","pelican","null","stimuli/playground_11.jpg","null","playground","H","non-repeat","null","334","stimuli/playground_11.jpg","","","","",""
"","","","","","image-keyboard-response","389","2.0.0","403091","p0hlt41tr55","pelican","null","stimuli/bar_48.jpg","null","bar","I","non-repeat","null","335","stimuli/bar_48.jpg","","","","",""
"","","","","","image-keyboard-response","390","2.0.0","404094","p0hlt41tr55","pelican","null","stimuli/desert_23.jpg","null","desert","J","non-repeat","null","336","stimuli/desert_23.jpg","","","","",""
"","","","","","image-keyboard-response","391","2.0.0","405096","p0hlt41tr55","pelican","null","stimuli/coast_14.jpg","null","coast","K","non-repeat","null","337","stimuli/coast_14.jpg","","","","",""
"","","","","","image-keyboard-response","392","2.0.0","406100","p0hlt41tr55","pelican","null","stimuli/field_54.jpg","null","field","L","non-repeat","null","338","stimuli/field_54.jpg","","","","",""
"","","","","","image-keyboard-response","393","2.0.0","407103","p0hlt41tr55","pelican","null","stimuli/bridge_8.jpg","null","bridge","A","non-repeat","null","339","stimuli/bridge_8.jpg","","","","",""
"","","","","","image-keyboard-response","394","2.0.0","408106","p0hlt41tr55","pelican","null","stimuli/stream_6.jpg","null","stream","B","non-repeat","null","340","stimuli/stream_6.jpg","","","","",""
"","","","","","image-keyboard-response","395","2.0.0","409110","p0hlt41tr55","pelican","null","stimuli/woods_28.jpg","null","woods","C","non-repeat","null","341","stimuli/woods_28.jpg","","","","",""
"","","","","","image-keyboard-response","396","2.0.0","410113","p0hlt41tr55","pelican","null","stimuli/gym_42.jpg","null","gym","G","non-repeat","null","342","stimuli/gym_42.jpg","","","","",""
"","","","","","image-keyboard-response","397","2.0.0","411116","p0hlt41tr55","pelican","null","stimuli/playground_11.jpg","null","playground","H","non-repeat","null","343","stimuli/playground_11.jpg","","","","",""
"","","","","","image-keyboard-response","398","2.0.0","412119","p0hlt41tr55","pelican","null","stimuli/bar_48.jpg","null","bar","I","non-repeat","null","344","stimuli/bar_48.jpg","","","","",""
"","","","","","image-keyboard-response","399","2.0.0","413120","p0hlt41tr55","pelican","836","stimuli/bar_48.jpg"," ","bar","I","repeat"," ","344","","","","","",""
"","","","","","image-keyboard-response","400","2.0.0","414122","p0hlt41tr55","pelican","null","stimuli/desert_23.jpg","null","desert","J","non-repeat","null","345","stimuli/desert_23.jpg","","","","",""
"","","","","","image-keyboard-response","401","2.0.0","415124","p0hlt41tr55","pelican","null","stimuli/coast_14.jpg","null","coast","K","non-repeat","null","346","stimuli/coast_14.jpg","","","","",""
"","","","","","image-keyboard-response","402","2.0.0","416126","p0hlt41tr55","pelican","null","stimuli/field_54.jpg","null","field","L","non-repeat","null","347","stimuli/field_54.jpg","","","","",""
"","","","","","image-keyboard-response","403","2.0.0","417127","p0hlt41tr55","pelican","null","stimuli/kitchen_41.jpg","null","kitchen","D","non-repeat","null","348","stimuli/kitchen_41.jpg","","","","",""
"","","","","","image-keyboard-response","404","2.0.0","418129","p0hlt41tr55","pelican","null","stimuli/street_54.jpg","null","street","E","non-repeat","null","349","stimuli/street_54.jpg","","","","",""
"","","","","","image-keyboard-response","405","2.0.0","419132","p0hlt41tr55","pelican","null","stimuli/bathroom_57.jpg","null","bathroom","F","non-repeat","null","350","stimuli/bathroom_57.jpg","","","","",""
"","","","","","image-keyboard-response","406","2.0.0","420134","p0hlt41tr55","pelican","null","stimuli/desert_23.jpg","null","desert","J","non-repeat","null","351","stimuli/desert_23.jpg","","","","",""
"","","","","","image-keyboard-response","407","2.0.0","421136","p0hlt41tr55","pelican","null","stimuli/coast_14.jpg","null","coast","K","non-repeat","null","352","stimuli/coast_14.jpg","","","","",""
"","","","","","image-keyboard-response","408","2.0.0","422137","p0hlt41tr55","pelican","null","stimuli/field_54.jpg","null","field","L","non-repeat","null","353","stimuli/field_54.jpg","","","","",""
"","","","","","image-keyboard-response","409","2.0.0","423139","p0hlt41tr55","pelican","null","stimuli/kitchen_41.jpg","null","kitchen","D","non-repeat","null","354","stimuli/kitchen_41.jpg","","","","",""
"","","","","","image-keyboard-response","410","2.0.0","424141","p0hlt41tr55","pelican","644","stimuli/kitchen_41.jpg"," ","kitchen","D","repeat"," ","354","","","","","",""
"","","","","","image-keyboard-response","411","2.0.0","425144","p0hlt41tr55","pelican","null","stimuli/street_54.jpg","null","street","E","non-repeat","null","355","stimuli/street_54.jpg","","","","",""
"","","","","","image-keyboard-response","412","2.0.0","426146","p0hlt41tr55","pelican","null","stimuli/bathroom_57.jpg","null","bathroom","F","non-repeat","null","356","stimuli/bathroom_57.jpg","","","","",""
"","","","","","image-keyboard-response","413","2.0.0","427149","p0hlt41tr55","pelican","null","stimuli/bridge_8.jpg","null","bridge","A","non-repeat","null","357","stimuli/bridge_8.jpg","","","","",""
"","","","","","image-keyboard-response","414","2.0.0","428152","p0hlt41tr55","pelican","null","stimuli/stream_6.jpg","null","stream","B","non-repeat","null","358","stimuli/stream_6.jpg","","","","",""
"","","","","","image-keyboard-response","415","2.0.0","429154","p0hlt41tr55","pelican","null","stimuli/woods_28.jpg","null","woods","C","non-repeat","null","359","stimuli/woods_28.jpg","","","","",""
"","","","","","image-keyboard-response","416","2.0.0","430157","p0hlt41tr55","pelican","null","stimuli/desert_23.jpg","null","desert","J","non-repeat","null","360","stimuli/desert_23.jpg","","","","",""
"","","","","","image-keyboard-response","417","2.0.0","431159","p0hlt41tr55","pelican","null","stimuli/coast_14.jpg","null","coast","K","non-repeat","null","361","stimuli/coast_14.jpg","","","","",""
"","","","","","image-keyboard-response","418","2.0.0","432161","p0hlt41tr55","pelican","null","stimuli/field_54.jpg","null","field","L","non-repeat","null","362","stimuli/field_54.jpg","","","","",""
"","","","","","image-keyboard-response","419","2.0.0","433163","p0hlt41tr55","pelican","null","stimuli/gym_42.jpg","null","gym","G","non-repeat","null","363","stimuli/gym_42.jpg","","","","",""
"","","","","","image-keyboard-response","420","2.0.0","434166","p0hlt41tr55","pelican","null","stimuli/playground_11.jpg","null","playground","H","non-repeat","null","364","stimuli/playground_11.jpg","","","","",""
"","","","","","image-keyboard-response","421","2.0.0","435168","p0hlt41tr55","pelican","null","stimuli/bar_48.jpg","null","bar","I","non-repeat","null","365","stimuli/bar_48.jpg","","","","",""
"","","","","","image-keyboard-response","422","2.0.0","436170","p0hlt41tr55","pelican","null","stimuli/bridge_8.jpg","null","bridge","A","non-repeat","null","366","stimuli/bridge_8.jpg","","","","",""
"","","","","","image-keyboard-response","423","2.0.0","437171","p0hlt41tr55","pelican","null","stimuli/stream_6.jpg","null","stream","B","non-repeat","null","367","stimuli/stream_6.jpg","","","","",""
"","","","","","image-keyboard-response","424","2.0.0","438174","p0hlt41tr55","pelican","null","stimuli/woods_28.jpg","null","woods","C","non-repeat","null","368","stimuli/woods_28.jpg","","","","",""
"","","","","","image-keyboard-response","425","2.0.0","439176","p0hlt41tr55","pelican","null","stimuli/kitchen_41.jpg","null","kitchen","D","non-repeat","null","369","stimuli/kitchen_41.jpg","","","","",""
"","","","","","image-keyboard-response","426","2.0.0","440178","p0hlt41tr55","pelican","null","stimuli/street_54.jpg","null","street","E","non-repeat","null","370","stimuli/street_54.jpg","","","","",""
"","","","","","image-keyboard-response","427","2.0.0","441180","p0hlt41tr55","pelican","null","stimuli/bathroom_57.jpg","null","bathroom","F","non-repeat","null","371","stimuli/bathroom_57.jpg","","","","",""
"","","","","","image-keyboard-response","428","2.0.0","442183","p0hlt41tr55","pelican","null","stimuli/gym_42.jpg","null","gym","G","non-repeat","null","372","stimuli/gym_42.jpg","","","","",""
"","","","","","image-keyboard-response","429","2.0.0","443185","p0hlt41tr55","pelican","null","stimuli/gym_42.jpg","null","gym","G","repeat"," ","372","","","","","",""
"","","","","","image-keyboard-response","430","2.0.0","444188","p0hlt41tr55","pelican","null","stimuli/playground_11.jpg","null","playground","H","non-repeat","null","373","stimuli/playground_11.jpg","","","","",""
"","","","","","image-keyboard-response","431","2.0.0","445191","p0hlt41tr55","pelican","null","stimuli/bar_48.jpg","null","bar","I","non-repeat","null","374","stimuli/bar_48.jpg","","","","",""
"","","","","","image-keyboard-response","432","2.0.0","446194","p0hlt41tr55","pelican","null","stimuli/desert_23.jpg","null","desert","J","non-repeat","null","375","stimuli/desert_23.jpg","","","","",""
"","","","","","image-keyboard-response","433","2.0.0","447197","p0hlt41tr55","pelican","null","stimuli/coast_14.jpg","null","coast","K","non-repeat","null","376","stimuli/coast_14.jpg","","","","",""
"","","","","","image-keyboard-response","434","2.0.0","448199","p0hlt41tr55","pelican","null","stimuli/field_54.jpg","null","field","L","non-repeat","null","377","stimuli/field_54.jpg","","","","",""
"","","","","","image-keyboard-response","435","2.0.0","449201","p0hlt41tr55","pelican","null","stimuli/gym_42.jpg","null","gym","G","non-repeat","null","378","stimuli/gym_42.jpg","","","","",""
"","","","","","image-keyboard-response","436","2.0.0","450203","p0hlt41tr55","pelican","null","stimuli/playground_11.jpg","null","playground","H","non-repeat","null","379","stimuli/playground_11.jpg","","","","",""
"","","","","","image-keyboard-response","437","2.0.0","451206","p0hlt41tr55","pelican","null","stimuli/bar_48.jpg","null","bar","I","non-repeat","null","380","stimuli/bar_48.jpg","","","","",""
"","","","","","image-keyboard-response","438","2.0.0","452209","p0hlt41tr55","pelican","null","stimuli/kitchen_41.jpg","null","kitchen","D","non-repeat","null","381","stimuli/kitchen_41.jpg","","","","",""
"","","","","","image-keyboard-response","439","2.0.0","453211","p0hlt41tr55","pelican","null","stimuli/street_54.jpg","null","street","E","non-repeat","null","382","stimuli/street_54.jpg","","","","",""
"","","","","","image-keyboard-response","440","2.0.0","454214","p0hlt41tr55","pelican","null","stimuli/bathroom_57.jpg","null","bathroom","F","non-repeat","null","383","stimuli/bathroom_57.jpg","","","","",""
"","","","","","image-keyboard-response","441","2.0.0","455217","p0hlt41tr55","pelican","null","stimuli/bridge_8.jpg","null","bridge","A","non-repeat","null","384","stimuli/bridge_8.jpg","","","","",""
"","","","","","image-keyboard-response","442","2.0.0","456219","p0hlt41tr55","pelican","null","stimuli/stream_6.jpg","null","stream","B","non-repeat","null","385","stimuli/stream_6.jpg","","","","",""
"","","","","","image-keyboard-response","443","2.0.0","457222","p0hlt41tr55","pelican","null","stimuli/woods_28.jpg","null","woods","C","non-repeat","null","386","stimuli/woods_28.jpg","","","","",""
"","","","","","image-keyboard-response","444","2.0.0","458225","p0hlt41tr55","pelican","null","stimuli/kitchen_41.jpg","null","kitchen","D","non-repeat","null","387","stimuli/kitchen_41.jpg","","","","",""
"","","","","","image-keyboard-response","445","2.0.0","459228","p0hlt41tr55","pelican","null","stimuli/street_54.jpg","null","street","E","non-repeat","null","388","stimuli/street_54.jpg","","","","",""
"","","","","","image-keyboard-response","446","2.0.0","460231","p0hlt41tr55","pelican","null","stimuli/bathroom_57.jpg","null","bathroom","F","non-repeat","null","389","stimuli/bathroom_57.jpg","","","","",""
"","","","","","image-keyboard-response","447","2.0.0","461234","p0hlt41tr55","pelican","null","stimuli/desert_23.jpg","null","desert","J","non-repeat","null","390","stimuli/desert_23.jpg","","","","",""
"","","","","","image-keyboard-response","448","2.0.0","462237","p0hlt41tr55","pelican","null","stimuli/coast_14.jpg","null","coast","K","non-repeat","null","391","stimuli/coast_14.jpg","","","","",""
"","","","","","image-keyboard-response","449","2.0.0","463241","p0hlt41tr55","pelican","null","stimuli/field_54.jpg","null","field","L","non-repeat","null","392","stimuli/field_54.jpg","","","","",""
"","","","","","image-keyboard-response","450","2.0.0","464243","p0hlt41tr55","pelican","null","stimuli/bridge_8.jpg","null","bridge","A","non-repeat","null","393","stimuli/bridge_8.jpg","","","","",""
"","","","","","image-keyboard-response","451","2.0.0","465247","p0hlt41tr55","pelican","null","stimuli/stream_6.jpg","null","stream","B","non-repeat","null","394","stimuli/stream_6.jpg","","","","",""
"","","","","","image-keyboard-response","452","2.0.0","466251","p0hlt41tr55","pelican","null","stimuli/woods_28.jpg","null","woods","C","non-repeat","null","395","stimuli/woods_28.jpg","","","","",""
"","","","","","image-keyboard-response","453","2.0.0","467254","p0hlt41tr55","pelican","735","stimuli/woods_28.jpg"," ","woods","C","repeat"," ","395","","","","","",""
"","","","","","image-keyboard-response","454","2.0.0","468257","p0hlt41tr55","pelican","null","stimuli/gym_42.jpg","null","gym","G","non-repeat","null","396","stimuli/gym_42.jpg","","","","",""
"","","","","","image-keyboard-response","455","2.0.0","469260","p0hlt41tr55","pelican","null","stimuli/playground_11.jpg","null","playground","H","non-repeat","null","397","stimuli/playground_11.jpg","","","","",""
"","","","","","image-keyboard-response","456","2.0.0","470262","p0hlt41tr55","pelican","null","stimuli/bar_48.jpg","null","bar","I","non-repeat","null","398","stimuli/bar_48.jpg","","","","",""
"","","","","","image-keyboard-response","457","2.0.0","471264","p0hlt41tr55","pelican","null","stimuli/kitchen_41.jpg","null","kitchen","D","non-repeat","null","399","stimuli/kitchen_41.jpg","","","","",""
"","","","","","image-keyboard-response","458","2.0.0","472266","p0hlt41tr55","pelican","null","stimuli/street_54.jpg","null","street","E","non-repeat","null","400","stimuli/street_54.jpg","","","","",""
"","","","","","image-keyboard-response","459","2.0.0","473269","p0hlt41tr55","pelican","null","stimuli/bathroom_57.jpg","null","bathroom","F","non-repeat","null","401","stimuli/bathroom_57.jpg","","","","",""
"","","","","","image-keyboard-response","460","2.0.0","474272","p0hlt41tr55","pelican","483","stimuli/bathroom_57.jpg"," ","bathroom","F","repeat"," ","401","","","","","",""
"","","","","","html-keyboard-response","461","2.0.0","488989","p0hlt41tr55","pelican","14716","
    <div style='width:900px;margin: auto;'><p>In the next part of the experiment, we want to see how well you learned the structure in the stream of images.</p>
    <p>On each trial, you will see two sequences of three images, sequence 1 and 2. We will ask you to indicate which sequence was more familiar based on the first part of the experiment.</p>
    <p>Press 1 if the first sequence (sequence 1) felt more familiar. Press 2 if the second sequence (sequence 2) felt more familiar.</p>
    <p>Press any key to begin.</p></div>"," ","","","","","","","","","","",""
"","","","","","html-keyboard-response","462","2.0.0","489991","p0hlt41tr55","pelican","null","<p>Sequence 1</p>","null","","","","","","","","","","",""
"","","","","","image-keyboard-response","463","2.0.0","490993","p0hlt41tr55","pelican","null","stimuli/desert_23.jpg","null","","","","","","","","","","",""
"","","","","","image-keyboard-response","464","2.0.0","491996","p0hlt41tr55","pelican","null","stimuli/coast_14.jpg","null","","","","","","","","","","",""
"","","","","","image-keyboard-response","465","2.0.0","492999","p0hlt41tr55","pelican","null","stimuli/field_54.jpg","null","","","","","","","","","","",""
"","","","","","html-keyboard-response","466","2.0.0","494002","p0hlt41tr55","pelican","null","<p></p>","null","","","","","","","","","","",""
"","","","","","html-keyboard-response","467","2.0.0","495004","p0hlt41tr55","pelican","null","<p>Sequence 2</p>","null","","","","","","","","","","",""
"","","","","","image-keyboard-response","468","2.0.0","496007","p0hlt41tr55","pelican","null","stimuli/desert_23.jpg","null","","","","","","","","","","",""
"","","","","","image-keyboard-response","469","2.0.0","497010","p0hlt41tr55","pelican","null","stimuli/stream_6.jpg","null","","","","","","","","","","",""
"","","","","","image-keyboard-response","470","2.0.0","498012","p0hlt41tr55","pelican","null","stimuli/bathroom_57.jpg","null","","","","","","","","","","",""
"","","","","","html-keyboard-response","471","2.0.0","498317","p0hlt41tr55","pelican","305","<p>Press '1' if the first sequence was familiar, '2' if the second was.</p>","1","","","1","","","","[""J"",""K"",""L""]","[""J"",""B"",""F""]","true","[""<p>Sequence 1</p>"",""stimuli/desert_23.jpg"",""stimuli/coast_14.jpg"",""stimuli/field_54.jpg""]","[""<p>Sequence 2</p>"",""stimuli/desert_23.jpg"",""stimuli/stream_6.jpg"",""stimuli/bathroom_57.jpg""]"
"","","","","","html-keyboard-response","472","2.0.0","499320","p0hlt41tr55","pelican","null","<p>Sequence 1</p>","null","","","","","","","","","","",""
"","","","","","image-keyboard-response","473","2.0.0","500323","p0hlt41tr55","pelican","null","stimuli/kitchen_41.jpg","null","","","","","","","","","","",""
"","","","","","image-keyboard-response","474","2.0.0","501326","p0hlt41tr55","pelican","null","stimuli/street_54.jpg","null","","","","","","","","","","",""
"","","","","","image-keyboard-response","475","2.0.0","502329","p0hlt41tr55","pelican","null","stimuli/bathroom_57.jpg","null","","","","","","","","","","",""
"","","","","","html-keyboard-response","476","2.0.0","503332","p0hlt41tr55","pelican","null","<p></p>","null","","","","","","","","","","",""
"","","","","","html-keyboard-response","477","2.0.0","504334","p0hlt41tr55","pelican","null","<p>Sequence 2</p>","null","","","","","","","","","","",""
"","","","","","image-keyboard-response","478","2.0.0","505337","p0hlt41tr55","pelican","null","stimuli/desert_23.jpg","null","","","","","","","","","","",""
"","","","","","image-keyboard-response","479","2.0.0","506340","p0hlt41tr55","pelican","null","stimuli/stream_6.jpg","null","","","","","","","","","","",""
"","","","","","image-keyboard-response","480","2.0.0","507342","p0hlt41tr55","pelican","null","stimuli/bathroom_57.jpg","null","","","","","","","","","","",""
"","","","","","html-keyboard-response","481","2.0.0","508291","p0hlt41tr55","pelican","949","<p>Press '1' if the first sequence was familiar, '2' if the second was.</p>","1","","","1","","","","[""D"",""E"",""F""]","[""J"",""B"",""F""]","true","[""<p>Sequence 1</p>"",""stimuli/kitchen_41.jpg"",""stimuli/street_54.jpg"",""stimuli/bathroom_57.jpg""]","[""<p>Sequence 2</p>"",""stimuli/desert_23.jpg"",""stimuli/stream_6.jpg"",""stimuli/bathroom_57.jpg""]"
"","","","","","html-keyboard-response","482","2.0.0","509294","p0hlt41tr55","pelican","null","<p>Sequence 1</p>","null","","","","","","","","","","",""
"","","","","","image-keyboard-response","483","2.0.0","510296","p0hlt41tr55","pelican","null","stimuli/desert_23.jpg","null","","","","","","","","","","",""
"","","","","","image-keyboard-response","484","2.0.0","511299","p0hlt41tr55","pelican","null","stimuli/coast_14.jpg","null","","","","","","","","","","",""
"","","","","","image-keyboard-response","485","2.0.0","512300","p0hlt41tr55","pelican","null","stimuli/field_54.jpg","null","","","","","","","","","","",""
"","","","","","html-keyboard-response","486","2.0.0","513303","p0hlt41tr55","pelican","null","<p></p>","null","","","","","","","","","","",""
"","","","","","html-keyboard-response","487","2.0.0","514306","p0hlt41tr55","pelican","null","<p>Sequence 2</p>","null","","","","","","","","","","",""
"","","","","","image-keyboard-response","488","2.0.0","515309","p0hlt41tr55","pelican","null","stimuli/kitchen_41.jpg","null","","","","","","","","","","",""
"","","","","","image-keyboard-response","489","2.0.0","516312","p0hlt41tr55","pelican","null","stimuli/playground_11.jpg","null","","","","","","","","","","",""
"","","","","","image-keyboard-response","490","2.0.0","517315","p0hlt41tr55","pelican","null","stimuli/field_54.jpg","null","","","","","","","","","","",""
"","","","","","html-keyboard-response","491","2.0.0","518289","p0hlt41tr55","pelican","973","<p>Press '1' if the first sequence was familiar, '2' if the second was.</p>","2","","","1","","","","[""J"",""K"",""L""]","[""D"",""H"",""L""]","false","[""<p>Sequence 1</p>"",""stimuli/desert_23.jpg"",""stimuli/coast_14.jpg"",""stimuli/field_54.jpg""]","[""<p>Sequence 2</p>"",""stimuli/kitchen_41.jpg"",""stimuli/playground_11.jpg"",""stimuli/field_54.jpg""]"
"","","","","","html-keyboard-response","492","2.0.0","519292","p0hlt41tr55","pelican","null","<p>Sequence 1</p>","null","","","","","","","","","","",""
"","","","","","image-keyboard-response","493","2.0.0","520295","p0hlt41tr55","pelican","null","stimuli/gym_42.jpg","null","","","","","","","","","","",""
"","","","","","image-keyboard-response","494","2.0.0","521298","p0hlt41tr55","pelican","null","stimuli/coast_14.jpg","null","","","","","","","","","","",""
"","","","","","image-keyboard-response","495","2.0.0","522300","p0hlt41tr55","pelican","null","stimuli/woods_28.jpg","null","","","","","","","","","","",""
"","","","","","html-keyboard-response","496","2.0.0","523303","p0hlt41tr55","pelican","null","<p></p>","null","","","","","","","","","","",""
"","","","","","html-keyboard-response","497","2.0.0","524306","p0hlt41tr55","pelican","null","<p>Sequence 2</p>","null","","","","","","","","","","",""
"","","","","","image-keyboard-response","498","2.0.0","525309","p0hlt41tr55","pelican","null","stimuli/desert_23.jpg","null","","","","","","","","","","",""
"","","","","","image-keyboard-response","499","2.0.0","526312","p0hlt41tr55","pelican","null","stimuli/coast_14.jpg","null","","","","","","","","","","",""
"","","","","","image-keyboard-response","500","2.0.0","527315","p0hlt41tr55","pelican","null","stimuli/field_54.jpg","null","","","","","","","","","","",""
