"success","timeout","failed_images","failed_audio","failed_video","trial_type","trial_index","plugin_version","time_elapsed","random_id","participant","rt","stimulus","response","category","letter","correct_response","correct_response_key","trial_counter","current_image","test_triplet","foil_triplet","correct","firstSequencePaths","secondSequencePaths"
"true","false","[]","[]","[]","preload","0","2.0.0","200","p0rqdol6vkq","manatee","","","","","","","","","","","","","",""
"true","","","","","fullscreen","1","null","2420","p0rqdol6vkq","manatee","1214","","","","","","","","","","","","",""
"","","","","","html-keyboard-response","2","2.0.0","3489","p0rqdol6vkq","manatee","1067","Welcome to the experiment. Press any key to begin."," ","","","","","","","","","","",""
"","","","","","survey-text","3","2.0.0","5618","p0rqdol6vkq","manatee","2125","","{""participant_id"":""manatee""}","","","","","","","","","","",""
"","","","","","html-keyboard-response","4","2.0.0","15702","p0rqdol6vkq","manatee","10084","
  <p>For this trial, you will see a series of images.</p>
  <p><b>Press the spacebar whenever you see the same image appear twice in a row.</b></p>
  <p>In other words, whenever the same image repeats back to back, press the spacebar.</p>
  <p>Press any key to begin.</p>","Enter","","","","","","","","","","",""
"","","","","","image-keyboard-response","5","2.0.0","16709","p0rqdol6vkq","manatee","null","stimuli/bridge_55.jpg","null","bridge","A","non-repeat","null","0","stimuli/bridge_55.jpg","","","","",""
"","","","","","image-keyboard-response","6","2.0.0","17716","p0rqdol6vkq","manatee","null","stimuli/street_13.jpg","null","street","B","non-repeat","null","1","stimuli/street_13.jpg","","","","",""
"","","","","","image-keyboard-response","7","2.0.0","18726","p0rqdol6vkq","manatee","null","stimuli/woods_63.jpg","null","woods","C","non-repeat","null","2","stimuli/woods_63.jpg","","","","",""
"","","","","","image-keyboard-response","8","2.0.0","19732","p0rqdol6vkq","manatee","null","stimuli/coast_14.jpg","null","coast","D","non-repeat","null","3","stimuli/coast_14.jpg","","","","",""
"","","","","","image-keyboard-response","9","2.0.0","20748","p0rqdol6vkq","manatee","null","stimuli/stream_36.jpg","null","stream","E","non-repeat","null","4","stimuli/stream_36.jpg","","","","",""
"","","","","","image-keyboard-response","10","2.0.0","21756","p0rqdol6vkq","manatee","null","stimuli/field_25.jpg","null","field","F","non-repeat","null","5","stimuli/field_25.jpg","","","","",""
"","","","","","image-keyboard-response","11","2.0.0","22772","p0rqdol6vkq","manatee","null","stimuli/desert_18.jpg","null","desert","J","non-repeat","null","6","stimuli/desert_18.jpg","","","","",""
"","","","","","image-keyboard-response","12","2.0.0","23783","p0rqdol6vkq","manatee","336","stimuli/desert_18.jpg"," ","desert","J","repeat"," ","6","","","","","",""
"","","","","","image-keyboard-response","13","2.0.0","24792","p0rqdol6vkq","manatee","null","stimuli/gym_63.jpg","null","gym","K","non-repeat","null","7","stimuli/gym_63.jpg","","","","",""
"","","","","","image-keyboard-response","14","2.0.0","25809","p0rqdol6vkq","manatee","null","stimuli/bar_21.jpg","null","bar","L","non-repeat","null","8","stimuli/bar_21.jpg","","","","",""
"","","","","","image-keyboard-response","15","2.0.0","26817","p0rqdol6vkq","manatee","null","stimuli/coast_14.jpg","null","coast","D","non-repeat","null","9","stimuli/coast_14.jpg","","","","",""
"","","","","","image-keyboard-response","16","2.0.0","27824","p0rqdol6vkq","manatee","null","stimuli/stream_36.jpg","null","stream","E","non-repeat","null","10","stimuli/stream_36.jpg","","","","",""
"","","","","","image-keyboard-response","17","2.0.0","28830","p0rqdol6vkq","manatee","null","stimuli/field_25.jpg","null","field","F","non-repeat","null","11","stimuli/field_25.jpg","","","","",""
"","","","","","image-keyboard-response","18","2.0.0","29841","p0rqdol6vkq","manatee","null","stimuli/bathroom_59.jpg","null","bathroom","G","non-repeat","null","12","stimuli/bathroom_59.jpg","","","","",""
"","","","","","image-keyboard-response","19","2.0.0","30848","p0rqdol6vkq","manatee","null","stimuli/kitchen_16.jpg","null","kitchen","H","non-repeat","null","13","stimuli/kitchen_16.jpg","","","","",""
"","","","","","image-keyboard-response","20","2.0.0","31859","p0rqdol6vkq","manatee","null","stimuli/playground_28.jpg","null","playground","I","non-repeat","null","14","stimuli/playground_28.jpg","","","","",""
"","","","","","image-keyboard-response","21","2.0.0","32875","p0rqdol6vkq","manatee","null","stimuli/coast_14.jpg","null","coast","D","non-repeat","null","15","stimuli/coast_14.jpg","","","","",""
"","","","","","image-keyboard-response","22","2.0.0","33892","p0rqdol6vkq","manatee","null","stimuli/stream_36.jpg","null","stream","E","non-repeat","null","16","stimuli/stream_36.jpg","","","","",""
"","","","","","image-keyboard-response","23","2.0.0","34901","p0rqdol6vkq","manatee","null","stimuli/field_25.jpg","null","field","F","non-repeat","null","17","stimuli/field_25.jpg","","","","",""
"","","","","","image-keyboard-response","24","2.0.0","35917","p0rqdol6vkq","manatee","null","stimuli/bridge_55.jpg","null","bridge","A","non-repeat","null","18","stimuli/bridge_55.jpg","","","","",""
"","","","","","image-keyboard-response","25","2.0.0","36920","p0rqdol6vkq","manatee","null","stimuli/street_13.jpg","null","street","B","non-repeat","null","19","stimuli/street_13.jpg","","","","",""
"","","","","","image-keyboard-response","26","2.0.0","37932","p0rqdol6vkq","manatee","null","stimuli/woods_63.jpg","null","woods","C","non-repeat","null","20","stimuli/woods_63.jpg","","","","",""
"","","","","","image-keyboard-response","27","2.0.0","38938","p0rqdol6vkq","manatee","null","stimuli/bathroom_59.jpg","null","bathroom","G","non-repeat","null","21","stimuli/bathroom_59.jpg","","","","",""
"","","","","","image-keyboard-response","28","2.0.0","39953","p0rqdol6vkq","manatee","null","stimuli/kitchen_16.jpg","null","kitchen","H","non-repeat","null","22","stimuli/kitchen_16.jpg","","","","",""
"","","","","","image-keyboard-response","29","2.0.0","40955","p0rqdol6vkq","manatee","null","stimuli/playground_28.jpg","null","playground","I","non-repeat","null","23","stimuli/playground_28.jpg","","","","",""
"","","","","","image-keyboard-response","30","2.0.0","41972","p0rqdol6vkq","manatee","null","stimuli/bridge_55.jpg","null","bridge","A","non-repeat","null","24","stimuli/bridge_55.jpg","","","","",""
"","","","","","image-keyboard-response","31","2.0.0","42990","p0rqdol6vkq","manatee","null","stimuli/street_13.jpg","null","street","B","non-repeat","null","25","stimuli/street_13.jpg","","","","",""
"","","","","","image-keyboard-response","32","2.0.0","43999","p0rqdol6vkq","manatee","null","stimuli/woods_63.jpg","null","woods","C","non-repeat","null","26","stimuli/woods_63.jpg","","","","",""
"","","","","","image-keyboard-response","33","2.0.0","45005","p0rqdol6vkq","manatee","524","stimuli/woods_63.jpg"," ","woods","C","repeat"," ","26","","","","","",""
"","","","","","image-keyboard-response","34","2.0.0","46019","p0rqdol6vkq","manatee","null","stimuli/coast_14.jpg","null","coast","D","non-repeat","null","27","stimuli/coast_14.jpg","","","","",""
"","","","","","image-keyboard-response","35","2.0.0","47029","p0rqdol6vkq","manatee","null","stimuli/stream_36.jpg","null","stream","E","non-repeat","null","28","stimuli/stream_36.jpg","","","","",""
"","","","","","image-keyboard-response","36","2.0.0","48046","p0rqdol6vkq","manatee","null","stimuli/field_25.jpg","null","field","F","non-repeat","null","29","stimuli/field_25.jpg","","","","",""
"","","","","","image-keyboard-response","37","2.0.0","49056","p0rqdol6vkq","manatee","811","stimuli/field_25.jpg"," ","field","F","repeat"," ","29","","","","","",""
"","","","","","image-keyboard-response","38","2.0.0","50063","p0rqdol6vkq","manatee","null","stimuli/desert_18.jpg","null","desert","J","non-repeat","null","30","stimuli/desert_18.jpg","","","","",""
"","","","","","image-keyboard-response","39","2.0.0","51078","p0rqdol6vkq","manatee","592","stimuli/desert_18.jpg"," ","desert","J","repeat"," ","30","","","","","",""
"","","","","","image-keyboard-response","40","2.0.0","52082","p0rqdol6vkq","manatee","null","stimuli/gym_63.jpg","null","gym","K","non-repeat","null","31","stimuli/gym_63.jpg","","","","",""
"","","","","","image-keyboard-response","41","2.0.0","53089","p0rqdol6vkq","manatee","null","stimuli/bar_21.jpg","null","bar","L","non-repeat","null","32","stimuli/bar_21.jpg","","","","",""
"","","","","","image-keyboard-response","42","2.0.0","54104","p0rqdol6vkq","manatee","null","stimuli/coast_14.jpg","null","coast","D","non-repeat","null","33","stimuli/coast_14.jpg","","","","",""
"","","","","","image-keyboard-response","43","2.0.0","55113","p0rqdol6vkq","manatee","null","stimuli/stream_36.jpg","null","stream","E","non-repeat","null","34","stimuli/stream_36.jpg","","","","",""
"","","","","","image-keyboard-response","44","2.0.0","56119","p0rqdol6vkq","manatee","null","stimuli/field_25.jpg","null","field","F","non-repeat","null","35","stimuli/field_25.jpg","","","","",""
"","","","","","image-keyboard-response","45","2.0.0","57135","p0rqdol6vkq","manatee","null","stimuli/bridge_55.jpg","null","bridge","A","non-repeat","null","36","stimuli/bridge_55.jpg","","","","",""
"","","","","","image-keyboard-response","46","2.0.0","58145","p0rqdol6vkq","manatee","495","stimuli/bridge_55.jpg"," ","bridge","A","repeat"," ","36","","","","","",""
"","","","","","image-keyboard-response","47","2.0.0","59154","p0rqdol6vkq","manatee","null","stimuli/street_13.jpg","null","street","B","non-repeat","null","37","stimuli/street_13.jpg","","","","",""
"","","","","","image-keyboard-response","48","2.0.0","60171","p0rqdol6vkq","manatee","null","stimuli/woods_63.jpg","null","woods","C","non-repeat","null","38","stimuli/woods_63.jpg","","","","",""
"","","","","","image-keyboard-response","49","2.0.0","61174","p0rqdol6vkq","manatee","444","stimuli/woods_63.jpg"," ","woods","C","repeat"," ","38","","","","","",""
"","","","","","image-keyboard-response","50","2.0.0","62182","p0rqdol6vkq","manatee","null","stimuli/bathroom_59.jpg","null","bathroom","G","non-repeat","null","39","stimuli/bathroom_59.jpg","","","","",""
"","","","","","image-keyboard-response","51","2.0.0","63193","p0rqdol6vkq","manatee","597","stimuli/bathroom_59.jpg"," ","bathroom","G","repeat"," ","39","","","","","",""
"","","","","","image-keyboard-response","52","2.0.0","64200","p0rqdol6vkq","manatee","null","stimuli/kitchen_16.jpg","null","kitchen","H","non-repeat","null","40","stimuli/kitchen_16.jpg","","","","",""
"","","","","","image-keyboard-response","53","2.0.0","65210","p0rqdol6vkq","manatee","null","stimuli/playground_28.jpg","null","playground","I","non-repeat","null","41","stimuli/playground_28.jpg","","","","",""
"","","","","","image-keyboard-response","54","2.0.0","66225","p0rqdol6vkq","manatee","498","stimuli/playground_28.jpg"," ","playground","I","repeat"," ","41","","","","","",""
"","","","","","image-keyboard-response","55","2.0.0","67234","p0rqdol6vkq","manatee","null","stimuli/desert_18.jpg","null","desert","J","non-repeat","null","42","stimuli/desert_18.jpg","","","","",""
"","","","","","image-keyboard-response","56","2.0.0","68247","p0rqdol6vkq","manatee","null","stimuli/gym_63.jpg","null","gym","K","non-repeat","null","43","stimuli/gym_63.jpg","","","","",""
"","","","","","image-keyboard-response","57","2.0.0","69258","p0rqdol6vkq","manatee","null","stimuli/bar_21.jpg","null","bar","L","non-repeat","null","44","stimuli/bar_21.jpg","","","","",""
"","","","","","image-keyboard-response","58","2.0.0","70267","p0rqdol6vkq","manatee","492","stimuli/bridge_55.jpg"," ","bridge","A","non-repeat","null","45","stimuli/bridge_55.jpg","","","","",""
"","","","","","image-keyboard-response","59","2.0.0","71275","p0rqdol6vkq","manatee","null","stimuli/street_13.jpg","null","street","B","non-repeat","null","46","stimuli/street_13.jpg","","","","",""
"","","","","","image-keyboard-response","60","2.0.0","72291","p0rqdol6vkq","manatee","null","stimuli/woods_63.jpg","null","woods","C","non-repeat","null","47","stimuli/woods_63.jpg","","","","",""
"","","","","","image-keyboard-response","61","2.0.0","73300","p0rqdol6vkq","manatee","null","stimuli/coast_14.jpg","null","coast","D","non-repeat","null","48","stimuli/coast_14.jpg","","","","",""
"","","","","","image-keyboard-response","62","2.0.0","74308","p0rqdol6vkq","manatee","null","stimuli/stream_36.jpg","null","stream","E","non-repeat","null","49","stimuli/stream_36.jpg","","","","",""
"","","","","","image-keyboard-response","63","2.0.0","75318","p0rqdol6vkq","manatee","null","stimuli/field_25.jpg","null","field","F","non-repeat","null","50","stimuli/field_25.jpg","","","","",""
"","","","","","image-keyboard-response","64","2.0.0","76335","p0rqdol6vkq","manatee","null","stimuli/bridge_55.jpg","null","bridge","A","non-repeat","null","51","stimuli/bridge_55.jpg","","","","",""
"","","","","","image-keyboard-response","65","2.0.0","77348","p0rqdol6vkq","manatee","null","stimuli/street_13.jpg","null","street","B","non-repeat","null","52","stimuli/street_13.jpg","","","","",""
"","","","","","image-keyboard-response","66","2.0.0","78354","p0rqdol6vkq","manatee","null","stimuli/woods_63.jpg","null","woods","C","non-repeat","null","53","stimuli/woods_63.jpg","","","","",""
"","","","","","image-keyboard-response","67","2.0.0","79360","p0rqdol6vkq","manatee","null","stimuli/bathroom_59.jpg","null","bathroom","G","non-repeat","null","54","stimuli/bathroom_59.jpg","","","","",""
"","","","","","image-keyboard-response","68","2.0.0","80367","p0rqdol6vkq","manatee","null","stimuli/kitchen_16.jpg","null","kitchen","H","non-repeat","null","55","stimuli/kitchen_16.jpg","","","","",""
"","","","","","image-keyboard-response","69","2.0.0","81373","p0rqdol6vkq","manatee","null","stimuli/playground_28.jpg","null","playground","I","non-repeat","null","56","stimuli/playground_28.jpg","","","","",""
"","","","","","image-keyboard-response","70","2.0.0","82388","p0rqdol6vkq","manatee","null","stimuli/coast_14.jpg","null","coast","D","non-repeat","null","57","stimuli/coast_14.jpg","","","","",""
"","","","","","image-keyboard-response","71","2.0.0","83397","p0rqdol6vkq","manatee","null","stimuli/stream_36.jpg","null","stream","E","non-repeat","null","58","stimuli/stream_36.jpg","","","","",""
"","","","","","image-keyboard-response","72","2.0.0","84408","p0rqdol6vkq","manatee","null","stimuli/field_25.jpg","null","field","F","non-repeat","null","59","stimuli/field_25.jpg","","","","",""
"","","","","","image-keyboard-response","73","2.0.0","85411","p0rqdol6vkq","manatee","null","stimuli/bridge_55.jpg","null","bridge","A","non-repeat","null","60","stimuli/bridge_55.jpg","","","","",""
"","","","","","image-keyboard-response","74","2.0.0","86420","p0rqdol6vkq","manatee","null","stimuli/street_13.jpg","null","street","B","non-repeat","null","61","stimuli/street_13.jpg","","","","",""
"","","","","","image-keyboard-response","75","2.0.0","87437","p0rqdol6vkq","manatee","null","stimuli/woods_63.jpg","null","woods","C","non-repeat","null","62","stimuli/woods_63.jpg","","","","",""
"","","","","","image-keyboard-response","76","2.0.0","88454","p0rqdol6vkq","manatee","null","stimuli/coast_14.jpg","null","coast","D","non-repeat","null","63","stimuli/coast_14.jpg","","","","",""
"","","","","","image-keyboard-response","77","2.0.0","89463","p0rqdol6vkq","manatee","null","stimuli/stream_36.jpg","null","stream","E","non-repeat","null","64","stimuli/stream_36.jpg","","","","",""
"","","","","","image-keyboard-response","78","2.0.0","90470","p0rqdol6vkq","manatee","null","stimuli/field_25.jpg","null","field","F","non-repeat","null","65","stimuli/field_25.jpg","","","","",""
"","","","","","image-keyboard-response","79","2.0.0","91479","p0rqdol6vkq","manatee","null","stimuli/desert_18.jpg","null","desert","J","non-repeat","null","66","stimuli/desert_18.jpg","","","","",""
"","","","","","image-keyboard-response","80","2.0.0","92497","p0rqdol6vkq","manatee","null","stimuli/gym_63.jpg","null","gym","K","non-repeat","null","67","stimuli/gym_63.jpg","","","","",""
"","","","","","image-keyboard-response","81","2.0.0","93503","p0rqdol6vkq","manatee","null","stimuli/bar_21.jpg","null","bar","L","non-repeat","null","68","stimuli/bar_21.jpg","","","","",""
"","","","","","image-keyboard-response","82","2.0.0","94517","p0rqdol6vkq","manatee","407","stimuli/bar_21.jpg"," ","bar","L","repeat"," ","68","","","","","",""
"","","","","","image-keyboard-response","83","2.0.0","95535","p0rqdol6vkq","manatee","null","stimuli/bathroom_59.jpg","null","bathroom","G","non-repeat","null","69","stimuli/bathroom_59.jpg","","","","",""
"","","","","","image-keyboard-response","84","2.0.0","96551","p0rqdol6vkq","manatee","660","stimuli/bathroom_59.jpg"," ","bathroom","G","repeat"," ","69","","","","","",""
"","","","","","image-keyboard-response","85","2.0.0","97561","p0rqdol6vkq","manatee","null","stimuli/kitchen_16.jpg","null","kitchen","H","non-repeat","null","70","stimuli/kitchen_16.jpg","","","","",""
"","","","","","image-keyboard-response","86","2.0.0","98573","p0rqdol6vkq","manatee","null","stimuli/playground_28.jpg","null","playground","I","non-repeat","null","71","stimuli/playground_28.jpg","","","","",""
"","","","","","image-keyboard-response","87","2.0.0","99583","p0rqdol6vkq","manatee","null","stimuli/coast_14.jpg","null","coast","D","non-repeat","null","72","stimuli/coast_14.jpg","","","","",""
"","","","","","image-keyboard-response","88","2.0.0","100599","p0rqdol6vkq","manatee","null","stimuli/stream_36.jpg","null","stream","E","non-repeat","null","73","stimuli/stream_36.jpg","","","","",""
"","","","","","image-keyboard-response","89","2.0.0","101607","p0rqdol6vkq","manatee","null","stimuli/field_25.jpg","null","field","F","non-repeat","null","74","stimuli/field_25.jpg","","","","",""
"","","","","","image-keyboard-response","90","2.0.0","102613","p0rqdol6vkq","manatee","null","stimuli/desert_18.jpg","null","desert","J","non-repeat","null","75","stimuli/desert_18.jpg","","","","",""
"","","","","","image-keyboard-response","91","2.0.0","103631","p0rqdol6vkq","manatee","471","stimuli/desert_18.jpg"," ","desert","J","repeat"," ","75","","","","","",""
"","","","","","image-keyboard-response","92","2.0.0","104633","p0rqdol6vkq","manatee","null","stimuli/gym_63.jpg","null","gym","K","non-repeat","null","76","stimuli/gym_63.jpg","","","","",""
"","","","","","image-keyboard-response","93","2.0.0","105639","p0rqdol6vkq","manatee","null","stimuli/bar_21.jpg","null","bar","L","non-repeat","null","77","stimuli/bar_21.jpg","","","","",""
"","","","","","image-keyboard-response","94","2.0.0","106645","p0rqdol6vkq","manatee","null","stimuli/bathroom_59.jpg","null","bathroom","G","non-repeat","null","78","stimuli/bathroom_59.jpg","","","","",""
"","","","","","image-keyboard-response","95","2.0.0","107660","p0rqdol6vkq","manatee","null","stimuli/bathroom_59.jpg","null","bathroom","G","repeat"," ","78","","","","","",""
"","","","","","image-keyboard-response","96","2.0.0","108668","p0rqdol6vkq","manatee","null","stimuli/kitchen_16.jpg","null","kitchen","H","non-repeat","null","79","stimuli/kitchen_16.jpg","","","","",""
"","","","","","image-keyboard-response","97","2.0.0","109685","p0rqdol6vkq","manatee","null","stimuli/playground_28.jpg","null","playground","I","non-repeat","null","80","stimuli/playground_28.jpg","","","","",""
"","","","","","image-keyboard-response","98","2.0.0","110694","p0rqdol6vkq","manatee","null","stimuli/bridge_55.jpg","null","bridge","A","non-repeat","null","81","stimuli/bridge_55.jpg","","","","",""
"","","","","","image-keyboard-response","99","2.0.0","111706","p0rqdol6vkq","manatee","null","stimuli/street_13.jpg","null","street","B","non-repeat","null","82","stimuli/street_13.jpg","","","","",""
"","","","","","image-keyboard-response","100","2.0.0","112717","p0rqdol6vkq","manatee","null","stimuli/woods_63.jpg","null","woods","C","non-repeat","null","83","stimuli/woods_63.jpg","","","","",""
"","","","","","image-keyboard-response","101","2.0.0","113732","p0rqdol6vkq","manatee","null","stimuli/desert_18.jpg","null","desert","J","non-repeat","null","84","stimuli/desert_18.jpg","","","","",""
"","","","","","image-keyboard-response","102","2.0.0","114742","p0rqdol6vkq","manatee","null","stimuli/gym_63.jpg","null","gym","K","non-repeat","null","85","stimuli/gym_63.jpg","","","","",""
"","","","","","image-keyboard-response","103","2.0.0","115752","p0rqdol6vkq","manatee","null","stimuli/bar_21.jpg","null","bar","L","non-repeat","null","86","stimuli/bar_21.jpg","","","","",""
"","","","","","image-keyboard-response","104","2.0.0","116769","p0rqdol6vkq","manatee","null","stimuli/bridge_55.jpg","null","bridge","A","non-repeat","null","87","stimuli/bridge_55.jpg","","","","",""
"","","","","","image-keyboard-response","105","2.0.0","117771","p0rqdol6vkq","manatee","null","stimuli/street_13.jpg","null","street","B","non-repeat","null","88","stimuli/street_13.jpg","","","","",""
"","","","","","image-keyboard-response","106","2.0.0","118795","p0rqdol6vkq","manatee","null","stimuli/woods_63.jpg","null","woods","C","non-repeat","null","89","stimuli/woods_63.jpg","","","","",""
"","","","","","image-keyboard-response","107","2.0.0","119812","p0rqdol6vkq","manatee","null","stimuli/desert_18.jpg","null","desert","J","non-repeat","null","90","stimuli/desert_18.jpg","","","","",""
"","","","","","image-keyboard-response","108","2.0.0","120820","p0rqdol6vkq","manatee","null","stimuli/gym_63.jpg","null","gym","K","non-repeat","null","91","stimuli/gym_63.jpg","","","","",""
"","","","","","image-keyboard-response","109","2.0.0","121836","p0rqdol6vkq","manatee","null","stimuli/bar_21.jpg","null","bar","L","non-repeat","null","92","stimuli/bar_21.jpg","","","","",""
"","","","","","image-keyboard-response","110","2.0.0","122848","p0rqdol6vkq","manatee","null","stimuli/coast_14.jpg","null","coast","D","non-repeat","null","93","stimuli/coast_14.jpg","","","","",""
"","","","","","image-keyboard-response","111","2.0.0","123859","p0rqdol6vkq","manatee","null","stimuli/coast_14.jpg","null","coast","D","repeat"," ","93","","","","","",""
"","","","","","image-keyboard-response","112","2.0.0","124875","p0rqdol6vkq","manatee","null","stimuli/stream_36.jpg","null","stream","E","non-repeat","null","94","stimuli/stream_36.jpg","","","","",""
"","","","","","image-keyboard-response","113","2.0.0","125887","p0rqdol6vkq","manatee","null","stimuli/field_25.jpg","null","field","F","non-repeat","null","95","stimuli/field_25.jpg","","","","",""
"","","","","","image-keyboard-response","114","2.0.0","126903","p0rqdol6vkq","manatee","null","stimuli/desert_18.jpg","null","desert","J","non-repeat","null","96","stimuli/desert_18.jpg","","","","",""
"","","","","","image-keyboard-response","115","2.0.0","127921","p0rqdol6vkq","manatee","null","stimuli/gym_63.jpg","null","gym","K","non-repeat","null","97","stimuli/gym_63.jpg","","","","",""
"","","","","","image-keyboard-response","116","2.0.0","128924","p0rqdol6vkq","manatee","null","stimuli/bar_21.jpg","null","bar","L","non-repeat","null","98","stimuli/bar_21.jpg","","","","",""
"","","","","","image-keyboard-response","117","2.0.0","129939","p0rqdol6vkq","manatee","null","stimuli/coast_14.jpg","null","coast","D","non-repeat","null","99","stimuli/coast_14.jpg","","","","",""
"","","","","","image-keyboard-response","118","2.0.0","130947","p0rqdol6vkq","manatee","null","stimuli/stream_36.jpg","null","stream","E","non-repeat","null","100","stimuli/stream_36.jpg","","","","",""
"","","","","","image-keyboard-response","119","2.0.0","131963","p0rqdol6vkq","manatee","null","stimuli/field_25.jpg","null","field","F","non-repeat","null","101","stimuli/field_25.jpg","","","","",""
"","","","","","image-keyboard-response","120","2.0.0","132966","p0rqdol6vkq","manatee","738","stimuli/field_25.jpg"," ","field","F","repeat"," ","101","","","","","",""
"","","","","","image-keyboard-response","121","2.0.0","133976","p0rqdol6vkq","manatee","null","stimuli/bathroom_59.jpg","null","bathroom","G","non-repeat","null","102","stimuli/bathroom_59.jpg","","","","",""
"","","","","","image-keyboard-response","122","2.0.0","134983","p0rqdol6vkq","manatee","null","stimuli/kitchen_16.jpg","null","kitchen","H","non-repeat","null","103","stimuli/kitchen_16.jpg","","","","",""
"","","","","","image-keyboard-response","123","2.0.0","135989","p0rqdol6vkq","manatee","null","stimuli/playground_28.jpg","null","playground","I","non-repeat","null","104","stimuli/playground_28.jpg","","","","",""
"","","","","","image-keyboard-response","124","2.0.0","136995","p0rqdol6vkq","manatee","null","stimuli/coast_14.jpg","null","coast","D","non-repeat","null","105","stimuli/coast_14.jpg","","","","",""
"","","","","","image-keyboard-response","125","2.0.0","138000","p0rqdol6vkq","manatee","null","stimuli/stream_36.jpg","null","stream","E","non-repeat","null","106","stimuli/stream_36.jpg","","","","",""
"","","","","","image-keyboard-response","126","2.0.0","139017","p0rqdol6vkq","manatee","null","stimuli/field_25.jpg","null","field","F","non-repeat","null","107","stimuli/field_25.jpg","","","","",""
"","","","","","image-keyboard-response","127","2.0.0","140023","p0rqdol6vkq","manatee","618","stimuli/field_25.jpg"," ","field","F","repeat"," ","107","","","","","",""
"","","","","","image-keyboard-response","128","2.0.0","141027","p0rqdol6vkq","manatee","null","stimuli/bridge_55.jpg","null","bridge","A","non-repeat","null","108","stimuli/bridge_55.jpg","","","","",""
"","","","","","image-keyboard-response","129","2.0.0","142037","p0rqdol6vkq","manatee","null","stimuli/street_13.jpg","null","street","B","non-repeat","null","109","stimuli/street_13.jpg","","","","",""
"","","","","","image-keyboard-response","130","2.0.0","143044","p0rqdol6vkq","manatee","null","stimuli/woods_63.jpg","null","woods","C","non-repeat","null","110","stimuli/woods_63.jpg","","","","",""
"","","","","","image-keyboard-response","131","2.0.0","144061","p0rqdol6vkq","manatee","666","stimuli/woods_63.jpg"," ","woods","C","repeat"," ","110","","","","","",""
"","","","","","image-keyboard-response","132","2.0.0","145076","p0rqdol6vkq","manatee","null","stimuli/desert_18.jpg","null","desert","J","non-repeat","null","111","stimuli/desert_18.jpg","","","","",""
"","","","","","image-keyboard-response","133","2.0.0","146094","p0rqdol6vkq","manatee","502","stimuli/desert_18.jpg"," ","desert","J","repeat"," ","111","","","","","",""
"","","","","","image-keyboard-response","134","2.0.0","147104","p0rqdol6vkq","manatee","null","stimuli/gym_63.jpg","null","gym","K","non-repeat","null","112","stimuli/gym_63.jpg","","","","",""
"","","","","","image-keyboard-response","135","2.0.0","148110","p0rqdol6vkq","manatee","null","stimuli/bar_21.jpg","null","bar","L","non-repeat","null","113","stimuli/bar_21.jpg","","","","",""
"","","","","","image-keyboard-response","136","2.0.0","149118","p0rqdol6vkq","manatee","null","stimuli/coast_14.jpg","null","coast","D","non-repeat","null","114","stimuli/coast_14.jpg","","","","",""
"","","","","","image-keyboard-response","137","2.0.0","150129","p0rqdol6vkq","manatee","null","stimuli/stream_36.jpg","null","stream","E","non-repeat","null","115","stimuli/stream_36.jpg","","","","",""
"","","","","","image-keyboard-response","138","2.0.0","151134","p0rqdol6vkq","manatee","null","stimuli/field_25.jpg","null","field","F","non-repeat","null","116","stimuli/field_25.jpg","","","","",""
"","","","","","image-keyboard-response","139","2.0.0","152140","p0rqdol6vkq","manatee","null","stimuli/bathroom_59.jpg","null","bathroom","G","non-repeat","null","117","stimuli/bathroom_59.jpg","","","","",""
"","","","","","image-keyboard-response","140","2.0.0","153148","p0rqdol6vkq","manatee","null","stimuli/kitchen_16.jpg","null","kitchen","H","non-repeat","null","118","stimuli/kitchen_16.jpg","","","","",""
"","","","","","image-keyboard-response","141","2.0.0","154155","p0rqdol6vkq","manatee","837","stimuli/playground_28.jpg"," ","playground","I","non-repeat","null","119","stimuli/playground_28.jpg","","","","",""
"","","","","","image-keyboard-response","142","2.0.0","155158","p0rqdol6vkq","manatee","null","stimuli/bridge_55.jpg","null","bridge","A","non-repeat","null","120","stimuli/bridge_55.jpg","","","","",""
"","","","","","image-keyboard-response","143","2.0.0","156461","p0rqdol6vkq","manatee","null","stimuli/street_13.jpg","null","street","B","non-repeat","null","121","stimuli/street_13.jpg","","","","",""
"","","","","","image-keyboard-response","144","2.0.0","157468","p0rqdol6vkq","manatee","null","stimuli/woods_63.jpg","null","woods","C","non-repeat","null","122","stimuli/woods_63.jpg","","","","",""
"","","","","","image-keyboard-response","145","2.0.0","158480","p0rqdol6vkq","manatee","null","stimuli/bathroom_59.jpg","null","bathroom","G","non-repeat","null","123","stimuli/bathroom_59.jpg","","","","",""
"","","","","","image-keyboard-response","146","2.0.0","159492","p0rqdol6vkq","manatee","null","stimuli/kitchen_16.jpg","null","kitchen","H","non-repeat","null","124","stimuli/kitchen_16.jpg","","","","",""
"","","","","","image-keyboard-response","147","2.0.0","160501","p0rqdol6vkq","manatee","null","stimuli/playground_28.jpg","null","playground","I","non-repeat","null","125","stimuli/playground_28.jpg","","","","",""
"","","","","","image-keyboard-response","148","2.0.0","161507","p0rqdol6vkq","manatee","412","stimuli/playground_28.jpg"," ","playground","I","repeat"," ","125","","","","","",""
"","","","","","image-keyboard-response","149","2.0.0","162515","p0rqdol6vkq","manatee","null","stimuli/bridge_55.jpg","null","bridge","A","non-repeat","null","126","stimuli/bridge_55.jpg","","","","",""
"","","","","","image-keyboard-response","150","2.0.0","163532","p0rqdol6vkq","manatee","null","stimuli/street_13.jpg","null","street","B","non-repeat","null","127","stimuli/street_13.jpg","","","","",""
"","","","","","image-keyboard-response","151","2.0.0","164537","p0rqdol6vkq","manatee","null","stimuli/woods_63.jpg","null","woods","C","non-repeat","null","128","stimuli/woods_63.jpg","","","","",""
"","","","","","image-keyboard-response","152","2.0.0","165549","p0rqdol6vkq","manatee","null","stimuli/bathroom_59.jpg","null","bathroom","G","non-repeat","null","129","stimuli/bathroom_59.jpg","","","","",""
"","","","","","image-keyboard-response","153","2.0.0","166558","p0rqdol6vkq","manatee","566","stimuli/bathroom_59.jpg"," ","bathroom","G","repeat"," ","129","","","","","",""
"","","","","","image-keyboard-response","154","2.0.0","167562","p0rqdol6vkq","manatee","null","stimuli/kitchen_16.jpg","null","kitchen","H","non-repeat","null","130","stimuli/kitchen_16.jpg","","","","",""
"","","","","","image-keyboard-response","155","2.0.0","168565","p0rqdol6vkq","manatee","null","stimuli/playground_28.jpg","null","playground","I","non-repeat","null","131","stimuli/playground_28.jpg","","","","",""
"","","","","","image-keyboard-response","156","2.0.0","169579","p0rqdol6vkq","manatee","456","stimuli/playground_28.jpg"," ","playground","I","repeat"," ","131","","","","","",""
"","","","","","image-keyboard-response","157","2.0.0","170593","p0rqdol6vkq","manatee","null","stimuli/bridge_55.jpg","null","bridge","A","non-repeat","null","132","stimuli/bridge_55.jpg","","","","",""
"","","","","","image-keyboard-response","158","2.0.0","171598","p0rqdol6vkq","manatee","null","stimuli/street_13.jpg","null","street","B","non-repeat","null","133","stimuli/street_13.jpg","","","","",""
"","","","","","image-keyboard-response","159","2.0.0","172605","p0rqdol6vkq","manatee","null","stimuli/woods_63.jpg","null","woods","C","non-repeat","null","134","stimuli/woods_63.jpg","","","","",""
"","","","","","image-keyboard-response","160","2.0.0","173609","p0rqdol6vkq","manatee","null","stimuli/desert_18.jpg","null","desert","J","non-repeat","null","135","stimuli/desert_18.jpg","","","","",""
"","","","","","image-keyboard-response","161","2.0.0","174611","p0rqdol6vkq","manatee","null","stimuli/gym_63.jpg","null","gym","K","non-repeat","null","136","stimuli/gym_63.jpg","","","","",""
"","","","","","image-keyboard-response","162","2.0.0","175614","p0rqdol6vkq","manatee","null","stimuli/bar_21.jpg","null","bar","L","non-repeat","null","137","stimuli/bar_21.jpg","","","","",""
"","","","","","image-keyboard-response","163","2.0.0","176627","p0rqdol6vkq","manatee","730","stimuli/bathroom_59.jpg"," ","bathroom","G","non-repeat","null","138","stimuli/bathroom_59.jpg","","","","",""
"","","","","","image-keyboard-response","164","2.0.0","177638","p0rqdol6vkq","manatee","null","stimuli/kitchen_16.jpg","null","kitchen","H","non-repeat","null","139","stimuli/kitchen_16.jpg","","","","",""
"","","","","","image-keyboard-response","165","2.0.0","178648","p0rqdol6vkq","manatee","726","stimuli/playground_28.jpg"," ","playground","I","non-repeat","null","140","stimuli/playground_28.jpg","","","","",""
"","","","","","image-keyboard-response","166","2.0.0","179660","p0rqdol6vkq","manatee","null","stimuli/bridge_55.jpg","null","bridge","A","non-repeat","null","141","stimuli/bridge_55.jpg","","","","",""
"","","","","","image-keyboard-response","167","2.0.0","180670","p0rqdol6vkq","manatee","null","stimuli/street_13.jpg","null","street","B","non-repeat","null","142","stimuli/street_13.jpg","","","","",""
"","","","","","image-keyboard-response","168","2.0.0","181679","p0rqdol6vkq","manatee","null","stimuli/woods_63.jpg","null","woods","C","non-repeat","null","143","stimuli/woods_63.jpg","","","","",""
"","","","","","image-keyboard-response","169","2.0.0","182686","p0rqdol6vkq","manatee","444","stimuli/woods_63.jpg"," ","woods","C","repeat"," ","143","","","","","",""
"","","","","","image-keyboard-response","170","2.0.0","183703","p0rqdol6vkq","manatee","null","stimuli/desert_18.jpg","null","desert","J","non-repeat","null","144","stimuli/desert_18.jpg","","","","",""
"","","","","","image-keyboard-response","171","2.0.0","184706","p0rqdol6vkq","manatee","null","stimuli/gym_63.jpg","null","gym","K","non-repeat","null","145","stimuli/gym_63.jpg","","","","",""
"","","","","","image-keyboard-response","172","2.0.0","185716","p0rqdol6vkq","manatee","null","stimuli/bar_21.jpg","null","bar","L","non-repeat","null","146","stimuli/bar_21.jpg","","","","",""
"","","","","","image-keyboard-response","173","2.0.0","186720","p0rqdol6vkq","manatee","null","stimuli/bridge_55.jpg","null","bridge","A","non-repeat","null","147","stimuli/bridge_55.jpg","","","","",""
"","","","","","image-keyboard-response","174","2.0.0","187727","p0rqdol6vkq","manatee","null","stimuli/street_13.jpg","null","street","B","non-repeat","null","148","stimuli/street_13.jpg","","","","",""
"","","","","","image-keyboard-response","175","2.0.0","188733","p0rqdol6vkq","manatee","null","stimuli/woods_63.jpg","null","woods","C","non-repeat","null","149","stimuli/woods_63.jpg","","","","",""
"","","","","","image-keyboard-response","176","2.0.0","189739","p0rqdol6vkq","manatee","null","stimuli/desert_18.jpg","null","desert","J","non-repeat","null","150","stimuli/desert_18.jpg","","","","",""
"","","","","","image-keyboard-response","177","2.0.0","190746","p0rqdol6vkq","manatee","792","stimuli/desert_18.jpg"," ","desert","J","repeat"," ","150","","","","","",""
"","","","","","image-keyboard-response","178","2.0.0","191757","p0rqdol6vkq","manatee","null","stimuli/gym_63.jpg","null","gym","K","non-repeat","null","151","stimuli/gym_63.jpg","","","","",""
"","","","","","image-keyboard-response","179","2.0.0","192762","p0rqdol6vkq","manatee","null","stimuli/bar_21.jpg","null","bar","L","non-repeat","null","152","stimuli/bar_21.jpg","","","","",""
"","","","","","image-keyboard-response","180","2.0.0","193768","p0rqdol6vkq","manatee","null","stimuli/coast_14.jpg","null","coast","D","non-repeat","null","153","stimuli/coast_14.jpg","","","","",""
"","","","","","image-keyboard-response","181","2.0.0","194775","p0rqdol6vkq","manatee","null","stimuli/stream_36.jpg","null","stream","E","non-repeat","null","154","stimuli/stream_36.jpg","","","","",""
"","","","","","image-keyboard-response","182","2.0.0","195781","p0rqdol6vkq","manatee","null","stimuli/field_25.jpg","null","field","F","non-repeat","null","155","stimuli/field_25.jpg","","","","",""
"","","","","","image-keyboard-response","183","2.0.0","196788","p0rqdol6vkq","manatee","null","stimuli/bathroom_59.jpg","null","bathroom","G","non-repeat","null","156","stimuli/bathroom_59.jpg","","","","",""
"","","","","","image-keyboard-response","184","2.0.0","197793","p0rqdol6vkq","manatee","null","stimuli/kitchen_16.jpg","null","kitchen","H","non-repeat","null","157","stimuli/kitchen_16.jpg","","","","",""
"","","","","","image-keyboard-response","185","2.0.0","198800","p0rqdol6vkq","manatee","null","stimuli/playground_28.jpg","null","playground","I","non-repeat","null","158","stimuli/playground_28.jpg","","","","",""
"","","","","","image-keyboard-response","186","2.0.0","199817","p0rqdol6vkq","manatee","null","stimuli/coast_14.jpg","null","coast","D","non-repeat","null","159","stimuli/coast_14.jpg","","","","",""
"","","","","","image-keyboard-response","187","2.0.0","200826","p0rqdol6vkq","manatee","null","stimuli/stream_36.jpg","null","stream","E","non-repeat","null","160","stimuli/stream_36.jpg","","","","",""
"","","","","","image-keyboard-response","188","2.0.0","201828","p0rqdol6vkq","manatee","null","stimuli/field_25.jpg","null","field","F","non-repeat","null","161","stimuli/field_25.jpg","","","","",""
"","","","","","image-keyboard-response","189","2.0.0","202844","p0rqdol6vkq","manatee","687","stimuli/field_25.jpg"," ","field","F","repeat"," ","161","","","","","",""
"","","","","","image-keyboard-response","190","2.0.0","203850","p0rqdol6vkq","manatee","null","stimuli/desert_18.jpg","null","desert","J","non-repeat","null","162","stimuli/desert_18.jpg","","","","",""
"","","","","","image-keyboard-response","191","2.0.0","204857","p0rqdol6vkq","manatee","null","stimuli/desert_18.jpg","null","desert","J","repeat"," ","162","","","","","",""
"","","","","","image-keyboard-response","192","2.0.0","205882","p0rqdol6vkq","manatee","null","stimuli/gym_63.jpg","null","gym","K","non-repeat","null","163","stimuli/gym_63.jpg","","","","",""
"","","","","","image-keyboard-response","193","2.0.0","206888","p0rqdol6vkq","manatee","null","stimuli/bar_21.jpg","null","bar","L","non-repeat","null","164","stimuli/bar_21.jpg","","","","",""
"","","","","","image-keyboard-response","194","2.0.0","207892","p0rqdol6vkq","manatee","null","stimuli/bathroom_59.jpg","null","bathroom","G","non-repeat","null","165","stimuli/bathroom_59.jpg","","","","",""
"","","","","","image-keyboard-response","195","2.0.0","208905","p0rqdol6vkq","manatee","477","stimuli/bathroom_59.jpg"," ","bathroom","G","repeat"," ","165","","","","","",""
"","","","","","image-keyboard-response","196","2.0.0","209909","p0rqdol6vkq","manatee","null","stimuli/kitchen_16.jpg","null","kitchen","H","non-repeat","null","166","stimuli/kitchen_16.jpg","","","","",""
"","","","","","image-keyboard-response","197","2.0.0","210917","p0rqdol6vkq","manatee","null","stimuli/playground_28.jpg","null","playground","I","non-repeat","null","167","stimuli/playground_28.jpg","","","","",""
"","","","","","image-keyboard-response","198","2.0.0","211921","p0rqdol6vkq","manatee","null","stimuli/coast_14.jpg","null","coast","D","non-repeat","null","168","stimuli/coast_14.jpg","","","","",""
"","","","","","image-keyboard-response","199","2.0.0","212930","p0rqdol6vkq","manatee","null","stimuli/stream_36.jpg","null","stream","E","non-repeat","null","169","stimuli/stream_36.jpg","","","","",""
"","","","","","image-keyboard-response","200","2.0.0","213941","p0rqdol6vkq","manatee","null","stimuli/field_25.jpg","null","field","F","non-repeat","null","170","stimuli/field_25.jpg","","","","",""
"","","","","","image-keyboard-response","201","2.0.0","214944","p0rqdol6vkq","manatee","null","stimuli/desert_18.jpg","null","desert","J","non-repeat","null","171","stimuli/desert_18.jpg","","","","",""
"","","","","","image-keyboard-response","202","2.0.0","215948","p0rqdol6vkq","manatee","null","stimuli/gym_63.jpg","null","gym","K","non-repeat","null","172","stimuli/gym_63.jpg","","","","",""
"","","","","","image-keyboard-response","203","2.0.0","216965","p0rqdol6vkq","manatee","null","stimuli/bar_21.jpg","null","bar","L","non-repeat","null","173","stimuli/bar_21.jpg","","","","",""
"","","","","","image-keyboard-response","204","2.0.0","217977","p0rqdol6vkq","manatee","635","stimuli/bar_21.jpg"," ","bar","L","repeat"," ","173","","","","","",""
"","","","","","image-keyboard-response","205","2.0.0","218979","p0rqdol6vkq","manatee","null","stimuli/bridge_55.jpg","null","bridge","A","non-repeat","null","174","stimuli/bridge_55.jpg","","","","",""
"","","","","","image-keyboard-response","206","2.0.0","219987","p0rqdol6vkq","manatee","null","stimuli/street_13.jpg","null","street","B","non-repeat","null","175","stimuli/street_13.jpg","","","","",""
"","","","","","image-keyboard-response","207","2.0.0","221000","p0rqdol6vkq","manatee","null","stimuli/woods_63.jpg","null","woods","C","non-repeat","null","176","stimuli/woods_63.jpg","","","","",""
"","","","","","image-keyboard-response","208","2.0.0","222013","p0rqdol6vkq","manatee","null","stimuli/desert_18.jpg","null","desert","J","non-repeat","null","177","stimuli/desert_18.jpg","","","","",""
"","","","","","image-keyboard-response","209","2.0.0","223017","p0rqdol6vkq","manatee","null","stimuli/gym_63.jpg","null","gym","K","non-repeat","null","178","stimuli/gym_63.jpg","","","","",""
"","","","","","image-keyboard-response","210","2.0.0","224021","p0rqdol6vkq","manatee","null","stimuli/bar_21.jpg","null","bar","L","non-repeat","null","179","stimuli/bar_21.jpg","","","","",""
"","","","","","image-keyboard-response","211","2.0.0","225027","p0rqdol6vkq","manatee","null","stimuli/bathroom_59.jpg","null","bathroom","G","non-repeat","null","180","stimuli/bathroom_59.jpg","","","","",""
"","","","","","image-keyboard-response","212","2.0.0","226034","p0rqdol6vkq","manatee","null","stimuli/kitchen_16.jpg","null","kitchen","H","non-repeat","null","181","stimuli/kitchen_16.jpg","","","","",""
"","","","","","image-keyboard-response","213","2.0.0","227042","p0rqdol6vkq","manatee","null","stimuli/playground_28.jpg","null","playground","I","non-repeat","null","182","stimuli/playground_28.jpg","","","","",""
"","","","","","image-keyboard-response","214","2.0.0","228060","p0rqdol6vkq","manatee","null","stimuli/bridge_55.jpg","null","bridge","A","non-repeat","null","183","stimuli/bridge_55.jpg","","","","",""
"","","","","","image-keyboard-response","215","2.0.0","229076","p0rqdol6vkq","manatee","null","stimuli/street_13.jpg","null","street","B","non-repeat","null","184","stimuli/street_13.jpg","","","","",""
"","","","","","image-keyboard-response","216","2.0.0","230082","p0rqdol6vkq","manatee","null","stimuli/woods_63.jpg","null","woods","C","non-repeat","null","185","stimuli/woods_63.jpg","","","","",""
"","","","","","image-keyboard-response","217","2.0.0","231091","p0rqdol6vkq","manatee","null","stimuli/desert_18.jpg","null","desert","J","non-repeat","null","186","stimuli/desert_18.jpg","","","","",""
"","","","","","image-keyboard-response","218","2.0.0","232101","p0rqdol6vkq","manatee","null","stimuli/gym_63.jpg","null","gym","K","non-repeat","null","187","stimuli/gym_63.jpg","","","","",""
"","","","","","image-keyboard-response","219","2.0.0","233111","p0rqdol6vkq","manatee","null","stimuli/bar_21.jpg","null","bar","L","non-repeat","null","188","stimuli/bar_21.jpg","","","","",""
"","","","","","image-keyboard-response","220","2.0.0","234114","p0rqdol6vkq","manatee","null","stimuli/bridge_55.jpg","null","bridge","A","non-repeat","null","189","stimuli/bridge_55.jpg","","","","",""
"","","","","","image-keyboard-response","221","2.0.0","235125","p0rqdol6vkq","manatee","null","stimuli/street_13.jpg","null","street","B","non-repeat","null","190","stimuli/street_13.jpg","","","","",""
"","","","","","image-keyboard-response","222","2.0.0","236130","p0rqdol6vkq","manatee","null","stimuli/woods_63.jpg","null","woods","C","non-repeat","null","191","stimuli/woods_63.jpg","","","","",""
"","","","","","image-keyboard-response","223","2.0.0","237142","p0rqdol6vkq","manatee","null","stimuli/coast_14.jpg","null","coast","D","non-repeat","null","192","stimuli/coast_14.jpg","","","","",""
"","","","","","image-keyboard-response","224","2.0.0","238153","p0rqdol6vkq","manatee","null","stimuli/stream_36.jpg","null","stream","E","non-repeat","null","193","stimuli/stream_36.jpg","","","","",""
"","","","","","image-keyboard-response","225","2.0.0","239164","p0rqdol6vkq","manatee","null","stimuli/field_25.jpg","null","field","F","non-repeat","null","194","stimuli/field_25.jpg","","","","",""
"","","","","","image-keyboard-response","226","2.0.0","240175","p0rqdol6vkq","manatee","null","stimuli/field_25.jpg","null","field","F","repeat"," ","194","","","","","",""
"","","","","","image-keyboard-response","227","2.0.0","241181","p0rqdol6vkq","manatee","null","stimuli/bridge_55.jpg","null","bridge","A","non-repeat","null","195","stimuli/bridge_55.jpg","","","","",""
"","","","","","image-keyboard-response","228","2.0.0","242188","p0rqdol6vkq","manatee","null","stimuli/street_13.jpg","null","street","B","non-repeat","null","196","stimuli/street_13.jpg","","","","",""
"","","","","","image-keyboard-response","229","2.0.0","243197","p0rqdol6vkq","manatee","null","stimuli/woods_63.jpg","null","woods","C","non-repeat","null","197","stimuli/woods_63.jpg","","","","",""
"","","","","","image-keyboard-response","230","2.0.0","244214","p0rqdol6vkq","manatee","null","stimuli/bathroom_59.jpg","null","bathroom","G","non-repeat","null","198","stimuli/bathroom_59.jpg","","","","",""
"","","","","","image-keyboard-response","231","2.0.0","245227","p0rqdol6vkq","manatee","null","stimuli/kitchen_16.jpg","null","kitchen","H","non-repeat","null","199","stimuli/kitchen_16.jpg","","","","",""
"","","","","","image-keyboard-response","232","2.0.0","246240","p0rqdol6vkq","manatee","null","stimuli/playground_28.jpg","null","playground","I","non-repeat","null","200","stimuli/playground_28.jpg","","","","",""
"","","","","","image-keyboard-response","233","2.0.0","247244","p0rqdol6vkq","manatee","null","stimuli/bridge_55.jpg","null","bridge","A","non-repeat","null","201","stimuli/bridge_55.jpg","","","","",""
"","","","","","image-keyboard-response","234","2.0.0","248260","p0rqdol6vkq","manatee","null","stimuli/street_13.jpg","null","street","B","non-repeat","null","202","stimuli/street_13.jpg","","","","",""
"","","","","","image-keyboard-response","235","2.0.0","249266","p0rqdol6vkq","manatee","null","stimuli/woods_63.jpg","null","woods","C","non-repeat","null","203","stimuli/woods_63.jpg","","","","",""
"","","","","","image-keyboard-response","236","2.0.0","250274","p0rqdol6vkq","manatee","null","stimuli/coast_14.jpg","null","coast","D","non-repeat","null","204","stimuli/coast_14.jpg","","","","",""
"","","","","","image-keyboard-response","237","2.0.0","251289","p0rqdol6vkq","manatee","null","stimuli/stream_36.jpg","null","stream","E","non-repeat","null","205","stimuli/stream_36.jpg","","","","",""
"","","","","","image-keyboard-response","238","2.0.0","252300","p0rqdol6vkq","manatee","null","stimuli/field_25.jpg","null","field","F","non-repeat","null","206","stimuli/field_25.jpg","","","","",""
"","","","","","image-keyboard-response","239","2.0.0","253305","p0rqdol6vkq","manatee","null","stimuli/bathroom_59.jpg","null","bathroom","G","non-repeat","null","207","stimuli/bathroom_59.jpg","","","","",""
"","","","","","image-keyboard-response","240","2.0.0","254322","p0rqdol6vkq","manatee","null","stimuli/kitchen_16.jpg","null","kitchen","H","non-repeat","null","208","stimuli/kitchen_16.jpg","","","","",""
"","","","","","image-keyboard-response","241","2.0.0","255338","p0rqdol6vkq","manatee","null","stimuli/playground_28.jpg","null","playground","I","non-repeat","null","209","stimuli/playground_28.jpg","","","","",""
"","","","","","image-keyboard-response","242","2.0.0","256355","p0rqdol6vkq","manatee","null","stimuli/bridge_55.jpg","null","bridge","A","non-repeat","null","210","stimuli/bridge_55.jpg","","","","",""
"","","","","","image-keyboard-response","243","2.0.0","257362","p0rqdol6vkq","manatee","null","stimuli/street_13.jpg","null","street","B","non-repeat","null","211","stimuli/street_13.jpg","","","","",""
"","","","","","image-keyboard-response","244","2.0.0","258371","p0rqdol6vkq","manatee","null","stimuli/woods_63.jpg","null","woods","C","non-repeat","null","212","stimuli/woods_63.jpg","","","","",""
"","","","","","image-keyboard-response","245","2.0.0","259385","p0rqdol6vkq","manatee","null","stimuli/coast_14.jpg","null","coast","D","non-repeat","null","213","stimuli/coast_14.jpg","","","","",""
"","","","","","image-keyboard-response","246","2.0.0","260390","p0rqdol6vkq","manatee","null","stimuli/stream_36.jpg","null","stream","E","non-repeat","null","214","stimuli/stream_36.jpg","","","","",""
"","","","","","image-keyboard-response","247","2.0.0","261397","p0rqdol6vkq","manatee","null","stimuli/field_25.jpg","null","field","F","non-repeat","null","215","stimuli/field_25.jpg","","","","",""
"","","","","","image-keyboard-response","248","2.0.0","262413","p0rqdol6vkq","manatee","null","stimuli/bridge_55.jpg","null","bridge","A","non-repeat","null","216","stimuli/bridge_55.jpg","","","","",""
"","","","","","image-keyboard-response","249","2.0.0","263415","p0rqdol6vkq","manatee","null","stimuli/street_13.jpg","null","street","B","non-repeat","null","217","stimuli/street_13.jpg","","","","",""
"","","","","","image-keyboard-response","250","2.0.0","264421","p0rqdol6vkq","manatee","null","stimuli/woods_63.jpg","null","woods","C","non-repeat","null","218","stimuli/woods_63.jpg","","","","",""
"","","","","","image-keyboard-response","251","2.0.0","265438","p0rqdol6vkq","manatee","null","stimuli/bathroom_59.jpg","null","bathroom","G","non-repeat","null","219","stimuli/bathroom_59.jpg","","","","",""
"","","","","","image-keyboard-response","252","2.0.0","266454","p0rqdol6vkq","manatee","null","stimuli/kitchen_16.jpg","null","kitchen","H","non-repeat","null","220","stimuli/kitchen_16.jpg","","","","",""
"","","","","","image-keyboard-response","253","2.0.0","267468","p0rqdol6vkq","manatee","null","stimuli/playground_28.jpg","null","playground","I","non-repeat","null","221","stimuli/playground_28.jpg","","","","",""
"","","","","","image-keyboard-response","254","2.0.0","268474","p0rqdol6vkq","manatee","null","stimuli/bridge_55.jpg","null","bridge","A","non-repeat","null","222","stimuli/bridge_55.jpg","","","","",""
"","","","","","image-keyboard-response","255","2.0.0","269481","p0rqdol6vkq","manatee","null","stimuli/street_13.jpg","null","street","B","non-repeat","null","223","stimuli/street_13.jpg","","","","",""
"","","","","","image-keyboard-response","256","2.0.0","270494","p0rqdol6vkq","manatee","null","stimuli/woods_63.jpg","null","woods","C","non-repeat","null","224","stimuli/woods_63.jpg","","","","",""
"","","","","","image-keyboard-response","257","2.0.0","271500","p0rqdol6vkq","manatee","null","stimuli/bathroom_59.jpg","null","bathroom","G","non-repeat","null","225","stimuli/bathroom_59.jpg","","","","",""
"","","","","","image-keyboard-response","258","2.0.0","272512","p0rqdol6vkq","manatee","null","stimuli/kitchen_16.jpg","null","kitchen","H","non-repeat","null","226","stimuli/kitchen_16.jpg","","","","",""
"","","","","","image-keyboard-response","259","2.0.0","273519","p0rqdol6vkq","manatee","null","stimuli/playground_28.jpg","null","playground","I","non-repeat","null","227","stimuli/playground_28.jpg","","","","",""
"","","","","","image-keyboard-response","260","2.0.0","274535","p0rqdol6vkq","manatee","636","stimuli/playground_28.jpg"," ","playground","I","repeat"," ","227","","","","","",""
"","","","","","image-keyboard-response","261","2.0.0","275542","p0rqdol6vkq","manatee","null","stimuli/desert_18.jpg","null","desert","J","non-repeat","null","228","stimuli/desert_18.jpg","","","","",""
"","","","","","image-keyboard-response","262","2.0.0","276550","p0rqdol6vkq","manatee","null","stimuli/desert_18.jpg","null","desert","J","repeat"," ","228","","","","","",""
"","","","","","image-keyboard-response","263","2.0.0","277560","p0rqdol6vkq","manatee","null","stimuli/gym_63.jpg","null","gym","K","non-repeat","null","229","stimuli/gym_63.jpg","","","","",""
"","","","","","image-keyboard-response","264","2.0.0","278566","p0rqdol6vkq","manatee","null","stimuli/bar_21.jpg","null","bar","L","non-repeat","null","230","stimuli/bar_21.jpg","","","","",""
"","","","","","image-keyboard-response","265","2.0.0","279578","p0rqdol6vkq","manatee","null","stimuli/bathroom_59.jpg","null","bathroom","G","non-repeat","null","231","stimuli/bathroom_59.jpg","","","","",""
"","","","","","image-keyboard-response","266","2.0.0","280581","p0rqdol6vkq","manatee","null","stimuli/kitchen_16.jpg","null","kitchen","H","non-repeat","null","232","stimuli/kitchen_16.jpg","","","","",""
"","","","","","image-keyboard-response","267","2.0.0","281596","p0rqdol6vkq","manatee","null","stimuli/playground_28.jpg","null","playground","I","non-repeat","null","233","stimuli/playground_28.jpg","","","","",""
"","","","","","image-keyboard-response","268","2.0.0","282601","p0rqdol6vkq","manatee","null","stimuli/coast_14.jpg","null","coast","D","non-repeat","null","234","stimuli/coast_14.jpg","","","","",""
"","","","","","image-keyboard-response","269","2.0.0","283605","p0rqdol6vkq","manatee","null","stimuli/stream_36.jpg","null","stream","E","non-repeat","null","235","stimuli/stream_36.jpg","","","","",""
"","","","","","image-keyboard-response","270","2.0.0","284619","p0rqdol6vkq","manatee","null","stimuli/field_25.jpg","null","field","F","non-repeat","null","236","stimuli/field_25.jpg","","","","",""
"","","","","","image-keyboard-response","271","2.0.0","285624","p0rqdol6vkq","manatee","null","stimuli/desert_18.jpg","null","desert","J","non-repeat","null","237","stimuli/desert_18.jpg","","","","",""
"","","","","","image-keyboard-response","272","2.0.0","286628","p0rqdol6vkq","manatee","null","stimuli/gym_63.jpg","null","gym","K","non-repeat","null","238","stimuli/gym_63.jpg","","","","",""
"","","","","","image-keyboard-response","273","2.0.0","287636","p0rqdol6vkq","manatee","null","stimuli/bar_21.jpg","null","bar","L","non-repeat","null","239","stimuli/bar_21.jpg","","","","",""
"","","","","","image-keyboard-response","274","2.0.0","288649","p0rqdol6vkq","manatee","null","stimuli/bar_21.jpg","null","bar","L","repeat"," ","239","","","","","",""
"","","","","","image-keyboard-response","275","2.0.0","289656","p0rqdol6vkq","manatee","null","stimuli/coast_14.jpg","null","coast","D","non-repeat","null","240","stimuli/coast_14.jpg","","","","",""
"","","","","","image-keyboard-response","276","2.0.0","290662","p0rqdol6vkq","manatee","null","stimuli/coast_14.jpg","null","coast","D","repeat"," ","240","","","","","",""
"","","","","","image-keyboard-response","277","2.0.0","291674","p0rqdol6vkq","manatee","null","stimuli/stream_36.jpg","null","stream","E","non-repeat","null","241","stimuli/stream_36.jpg","","","","",""
"","","","","","image-keyboard-response","278","2.0.0","292690","p0rqdol6vkq","manatee","null","stimuli/field_25.jpg","null","field","F","non-repeat","null","242","stimuli/field_25.jpg","","","","",""
"","","","","","image-keyboard-response","279","2.0.0","293695","p0rqdol6vkq","manatee","null","stimuli/desert_18.jpg","null","desert","J","non-repeat","null","243","stimuli/desert_18.jpg","","","","",""
"","","","","","image-keyboard-response","280","2.0.0","294705","p0rqdol6vkq","manatee","null","stimuli/gym_63.jpg","null","gym","K","non-repeat","null","244","stimuli/gym_63.jpg","","","","",""
"","","","","","image-keyboard-response","281","2.0.0","295709","p0rqdol6vkq","manatee","null","stimuli/bar_21.jpg","null","bar","L","non-repeat","null","245","stimuli/bar_21.jpg","","","","",""
"","","","","","image-keyboard-response","282","2.0.0","296717","p0rqdol6vkq","manatee","null","stimuli/bathroom_59.jpg","null","bathroom","G","non-repeat","null","246","stimuli/bathroom_59.jpg","","","","",""
"","","","","","image-keyboard-response","283","2.0.0","297725","p0rqdol6vkq","manatee","null","stimuli/kitchen_16.jpg","null","kitchen","H","non-repeat","null","247","stimuli/kitchen_16.jpg","","","","",""
"","","","","","image-keyboard-response","284","2.0.0","298735","p0rqdol6vkq","manatee","null","stimuli/playground_28.jpg","null","playground","I","non-repeat","null","248","stimuli/playground_28.jpg","","","","",""
"","","","","","image-keyboard-response","285","2.0.0","299747","p0rqdol6vkq","manatee","null","stimuli/desert_18.jpg","null","desert","J","non-repeat","null","249","stimuli/desert_18.jpg","","","","",""
"","","","","","image-keyboard-response","286","2.0.0","300751","p0rqdol6vkq","manatee","null","stimuli/gym_63.jpg","null","gym","K","non-repeat","null","250","stimuli/gym_63.jpg","","","","",""
"","","","","","image-keyboard-response","287","2.0.0","301757","p0rqdol6vkq","manatee","null","stimuli/bar_21.jpg","null","bar","L","non-repeat","null","251","stimuli/bar_21.jpg","","","","",""
"","","","","","image-keyboard-response","288","2.0.0","302773","p0rqdol6vkq","manatee","null","stimuli/bar_21.jpg","null","bar","L","repeat"," ","251","","","","","",""
"","","","","","image-keyboard-response","289","2.0.0","303784","p0rqdol6vkq","manatee","null","stimuli/coast_14.jpg","null","coast","D","non-repeat","null","252","stimuli/coast_14.jpg","","","","",""
"","","","","","image-keyboard-response","290","2.0.0","304801","p0rqdol6vkq","manatee","null","stimuli/stream_36.jpg","null","stream","E","non-repeat","null","253","stimuli/stream_36.jpg","","","","",""
"","","","","","image-keyboard-response","291","2.0.0","305814","p0rqdol6vkq","manatee","null","stimuli/field_25.jpg","null","field","F","non-repeat","null","254","stimuli/field_25.jpg","","","","",""
"","","","","","image-keyboard-response","292","2.0.0","306822","p0rqdol6vkq","manatee","null","stimuli/field_25.jpg","null","field","F","repeat"," ","254","","","","","",""
"","","","","","image-keyboard-response","293","2.0.0","307830","p0rqdol6vkq","manatee","null","stimuli/desert_18.jpg","null","desert","J","non-repeat","null","255","stimuli/desert_18.jpg","","","","",""
"","","","","","image-keyboard-response","294","2.0.0","308844","p0rqdol6vkq","manatee","null","stimuli/gym_63.jpg","null","gym","K","non-repeat","null","256","stimuli/gym_63.jpg","","","","",""
"","","","","","image-keyboard-response","295","2.0.0","309849","p0rqdol6vkq","manatee","null","stimuli/bar_21.jpg","null","bar","L","non-repeat","null","257","stimuli/bar_21.jpg","","","","",""
"","","","","","image-keyboard-response","296","2.0.0","310856","p0rqdol6vkq","manatee","null","stimuli/bridge_55.jpg","null","bridge","A","non-repeat","null","258","stimuli/bridge_55.jpg","","","","",""
"","","","","","image-keyboard-response","297","2.0.0","311859","p0rqdol6vkq","manatee","null","stimuli/bridge_55.jpg","null","bridge","A","repeat"," ","258","","","","","",""
"","","","","","image-keyboard-response","298","2.0.0","312864","p0rqdol6vkq","manatee","null","stimuli/street_13.jpg","null","street","B","non-repeat","null","259","stimuli/street_13.jpg","","","","",""
"","","","","","image-keyboard-response","299","2.0.0","313871","p0rqdol6vkq","manatee","null","stimuli/woods_63.jpg","null","woods","C","non-repeat","null","260","stimuli/woods_63.jpg","","","","",""
"","","","","","image-keyboard-response","300","2.0.0","314886","p0rqdol6vkq","manatee","null","stimuli/woods_63.jpg","null","woods","C","repeat"," ","260","","","","","",""
"","","","","","image-keyboard-response","301","2.0.0","315893","p0rqdol6vkq","manatee","null","stimuli/desert_18.jpg","null","desert","J","non-repeat","null","261","stimuli/desert_18.jpg","","","","",""
"","","","","","image-keyboard-response","302","2.0.0","316908","p0rqdol6vkq","manatee","null","stimuli/gym_63.jpg","null","gym","K","non-repeat","null","262","stimuli/gym_63.jpg","","","","",""
"","","","","","image-keyboard-response","303","2.0.0","317919","p0rqdol6vkq","manatee","null","stimuli/bar_21.jpg","null","bar","L","non-repeat","null","263","stimuli/bar_21.jpg","","","","",""
"","","","","","image-keyboard-response","304","2.0.0","318924","p0rqdol6vkq","manatee","null","stimuli/bathroom_59.jpg","null","bathroom","G","non-repeat","null","264","stimuli/bathroom_59.jpg","","","","",""
"","","","","","image-keyboard-response","305","2.0.0","319934","p0rqdol6vkq","manatee","null","stimuli/kitchen_16.jpg","null","kitchen","H","non-repeat","null","265","stimuli/kitchen_16.jpg","","","","",""
"","","","","","image-keyboard-response","306","2.0.0","320941","p0rqdol6vkq","manatee","null","stimuli/playground_28.jpg","null","playground","I","non-repeat","null","266","stimuli/playground_28.jpg","","","","",""
"","","","","","image-keyboard-response","307","2.0.0","321956","p0rqdol6vkq","manatee","null","stimuli/coast_14.jpg","null","coast","D","non-repeat","null","267","stimuli/coast_14.jpg","","","","",""
"","","","","","image-keyboard-response","308","2.0.0","322973","p0rqdol6vkq","manatee","null","stimuli/stream_36.jpg","null","stream","E","non-repeat","null","268","stimuli/stream_36.jpg","","","","",""
"","","","","","image-keyboard-response","309","2.0.0","323978","p0rqdol6vkq","manatee","null","stimuli/field_25.jpg","null","field","F","non-repeat","null","269","stimuli/field_25.jpg","","","","",""
"","","","","","image-keyboard-response","310","2.0.0","324982","p0rqdol6vkq","manatee","null","stimuli/field_25.jpg","null","field","F","repeat"," ","269","","","","","",""
"","","","","","image-keyboard-response","311","2.0.0","325990","p0rqdol6vkq","manatee","null","stimuli/bridge_55.jpg","null","bridge","A","non-repeat","null","270","stimuli/bridge_55.jpg","","","","",""
"","","","","","image-keyboard-response","312","2.0.0","327001","p0rqdol6vkq","manatee","null","stimuli/street_13.jpg","null","street","B","non-repeat","null","271","stimuli/street_13.jpg","","","","",""
"","","","","","image-keyboard-response","313","2.0.0","328009","p0rqdol6vkq","manatee","null","stimuli/woods_63.jpg","null","woods","C","non-repeat","null","272","stimuli/woods_63.jpg","","","","",""
"","","","","","image-keyboard-response","314","2.0.0","329025","p0rqdol6vkq","manatee","null","stimuli/coast_14.jpg","null","coast","D","non-repeat","null","273","stimuli/coast_14.jpg","","","","",""
"","","","","","image-keyboard-response","315","2.0.0","330039","p0rqdol6vkq","manatee","631","stimuli/stream_36.jpg"," ","stream","E","non-repeat","null","274","stimuli/stream_36.jpg","","","","",""
"","","","","","image-keyboard-response","316","2.0.0","331043","p0rqdol6vkq","manatee","null","stimuli/field_25.jpg","null","field","F","non-repeat","null","275","stimuli/field_25.jpg","","","","",""
"","","","","","image-keyboard-response","317","2.0.0","332051","p0rqdol6vkq","manatee","null","stimuli/bathroom_59.jpg","null","bathroom","G","non-repeat","null","276","stimuli/bathroom_59.jpg","","","","",""
"","","","","","image-keyboard-response","318","2.0.0","333064","p0rqdol6vkq","manatee","null","stimuli/kitchen_16.jpg","null","kitchen","H","non-repeat","null","277","stimuli/kitchen_16.jpg","","","","",""
"","","","","","image-keyboard-response","319","2.0.0","334067","p0rqdol6vkq","manatee","null","stimuli/playground_28.jpg","null","playground","I","non-repeat","null","278","stimuli/playground_28.jpg","","","","",""
"","","","","","image-keyboard-response","320","2.0.0","335073","p0rqdol6vkq","manatee","null","stimuli/desert_18.jpg","null","desert","J","non-repeat","null","279","stimuli/desert_18.jpg","","","","",""
"","","","","","image-keyboard-response","321","2.0.0","336090","p0rqdol6vkq","manatee","null","stimuli/gym_63.jpg","null","gym","K","non-repeat","null","280","stimuli/gym_63.jpg","","","","",""
"","","","","","image-keyboard-response","322","2.0.0","337097","p0rqdol6vkq","manatee","null","stimuli/bar_21.jpg","null","bar","L","non-repeat","null","281","stimuli/bar_21.jpg","","","","",""
"","","","","","image-keyboard-response","323","2.0.0","338100","p0rqdol6vkq","manatee","null","stimuli/bathroom_59.jpg","null","bathroom","G","non-repeat","null","282","stimuli/bathroom_59.jpg","","","","",""
"","","","","","image-keyboard-response","324","2.0.0","339109","p0rqdol6vkq","manatee","602","stimuli/bathroom_59.jpg"," ","bathroom","G","repeat"," ","282","","","","","",""
"","","","","","image-keyboard-response","325","2.0.0","340123","p0rqdol6vkq","manatee","null","stimuli/kitchen_16.jpg","null","kitchen","H","non-repeat","null","283","stimuli/kitchen_16.jpg","","","","",""
"","","","","","image-keyboard-response","326","2.0.0","341135","p0rqdol6vkq","manatee","null","stimuli/playground_28.jpg","null","playground","I","non-repeat","null","284","stimuli/playground_28.jpg","","","","",""
"","","","","","image-keyboard-response","327","2.0.0","342144","p0rqdol6vkq","manatee","null","stimuli/bridge_55.jpg","null","bridge","A","non-repeat","null","285","stimuli/bridge_55.jpg","","","","",""
"","","","","","image-keyboard-response","328","2.0.0","343158","p0rqdol6vkq","manatee","null","stimuli/street_13.jpg","null","street","B","non-repeat","null","286","stimuli/street_13.jpg","","","","",""
"","","","","","image-keyboard-response","329","2.0.0","344164","p0rqdol6vkq","manatee","null","stimuli/woods_63.jpg","null","woods","C","non-repeat","null","287","stimuli/woods_63.jpg","","","","",""
"","","","","","image-keyboard-response","330","2.0.0","345172","p0rqdol6vkq","manatee","null","stimuli/desert_18.jpg","null","desert","J","non-repeat","null","288","stimuli/desert_18.jpg","","","","",""
"","","","","","image-keyboard-response","331","2.0.0","346176","p0rqdol6vkq","manatee","null","stimuli/gym_63.jpg","null","gym","K","non-repeat","null","289","stimuli/gym_63.jpg","","","","",""
"","","","","","image-keyboard-response","332","2.0.0","347184","p0rqdol6vkq","manatee","null","stimuli/bar_21.jpg","null","bar","L","non-repeat","null","290","stimuli/bar_21.jpg","","","","",""
"","","","","","image-keyboard-response","333","2.0.0","348195","p0rqdol6vkq","manatee","null","stimuli/bridge_55.jpg","null","bridge","A","non-repeat","null","291","stimuli/bridge_55.jpg","","","","",""
"","","","","","image-keyboard-response","334","2.0.0","349209","p0rqdol6vkq","manatee","null","stimuli/street_13.jpg","null","street","B","non-repeat","null","292","stimuli/street_13.jpg","","","","",""
"","","","","","image-keyboard-response","335","2.0.0","350212","p0rqdol6vkq","manatee","null","stimuli/woods_63.jpg","null","woods","C","non-repeat","null","293","stimuli/woods_63.jpg","","","","",""
"","","","","","image-keyboard-response","336","2.0.0","351218","p0rqdol6vkq","manatee","null","stimuli/desert_18.jpg","null","desert","J","non-repeat","null","294","stimuli/desert_18.jpg","","","","",""
"","","","","","image-keyboard-response","337","2.0.0","352222","p0rqdol6vkq","manatee","null","stimuli/gym_63.jpg","null","gym","K","non-repeat","null","295","stimuli/gym_63.jpg","","","","",""
"","","","","","image-keyboard-response","338","2.0.0","353239","p0rqdol6vkq","manatee","null","stimuli/bar_21.jpg","null","bar","L","non-repeat","null","296","stimuli/bar_21.jpg","","","","",""
"","","","","","image-keyboard-response","339","2.0.0","354247","p0rqdol6vkq","manatee","null","stimuli/coast_14.jpg","null","coast","D","non-repeat","null","297","stimuli/coast_14.jpg","","","","",""
"","","","","","image-keyboard-response","340","2.0.0","355250","p0rqdol6vkq","manatee","814","stimuli/coast_14.jpg"," ","coast","D","repeat"," ","297","","","","","",""
"","","","","","image-keyboard-response","341","2.0.0","356252","p0rqdol6vkq","manatee","null","stimuli/stream_36.jpg","null","stream","E","non-repeat","null","298","stimuli/stream_36.jpg","","","","",""
"","","","","","image-keyboard-response","342","2.0.0","357256","p0rqdol6vkq","manatee","null","stimuli/field_25.jpg","null","field","F","non-repeat","null","299","stimuli/field_25.jpg","","","","",""
"","","","","","image-keyboard-response","343","2.0.0","358267","p0rqdol6vkq","manatee","null","stimuli/bridge_55.jpg","null","bridge","A","non-repeat","null","300","stimuli/bridge_55.jpg","","","","",""
"","","","","","image-keyboard-response","344","2.0.0","359279","p0rqdol6vkq","manatee","null","stimuli/street_13.jpg","null","street","B","non-repeat","null","301","stimuli/street_13.jpg","","","","",""
"","","","","","image-keyboard-response","345","2.0.0","360286","p0rqdol6vkq","manatee","null","stimuli/woods_63.jpg","null","woods","C","non-repeat","null","302","stimuli/woods_63.jpg","","","","",""
"","","","","","image-keyboard-response","346","2.0.0","361300","p0rqdol6vkq","manatee","null","stimuli/coast_14.jpg","null","coast","D","non-repeat","null","303","stimuli/coast_14.jpg","","","","",""
"","","","","","image-keyboard-response","347","2.0.0","362315","p0rqdol6vkq","manatee","null","stimuli/stream_36.jpg","null","stream","E","non-repeat","null","304","stimuli/stream_36.jpg","","","","",""
"","","","","","image-keyboard-response","348","2.0.0","363322","p0rqdol6vkq","manatee","null","stimuli/field_25.jpg","null","field","F","non-repeat","null","305","stimuli/field_25.jpg","","","","",""
"","","","","","image-keyboard-response","349","2.0.0","364330","p0rqdol6vkq","manatee","null","stimuli/field_25.jpg","null","field","F","repeat"," ","305","","","","","",""
"","","","","","image-keyboard-response","350","2.0.0","365335","p0rqdol6vkq","manatee","null","stimuli/desert_18.jpg","null","desert","J","non-repeat","null","306","stimuli/desert_18.jpg","","","","",""
"","","","","","image-keyboard-response","351","2.0.0","366348","p0rqdol6vkq","manatee","null","stimuli/gym_63.jpg","null","gym","K","non-repeat","null","307","stimuli/gym_63.jpg","","","","",""
"","","","","","image-keyboard-response","352","2.0.0","367354","p0rqdol6vkq","manatee","null","stimuli/bar_21.jpg","null","bar","L","non-repeat","null","308","stimuli/bar_21.jpg","","","","",""
"","","","","","image-keyboard-response","353","2.0.0","368372","p0rqdol6vkq","manatee","null","stimuli/coast_14.jpg","null","coast","D","non-repeat","null","309","stimuli/coast_14.jpg","","","","",""
"","","","","","image-keyboard-response","354","2.0.0","369381","p0rqdol6vkq","manatee","null","stimuli/stream_36.jpg","null","stream","E","non-repeat","null","310","stimuli/stream_36.jpg","","","","",""
"","","","","","image-keyboard-response","355","2.0.0","370388","p0rqdol6vkq","manatee","null","stimuli/field_25.jpg","null","field","F","non-repeat","null","311","stimuli/field_25.jpg","","","","",""
"","","","","","image-keyboard-response","356","2.0.0","371399","p0rqdol6vkq","manatee","null","stimuli/desert_18.jpg","null","desert","J","non-repeat","null","312","stimuli/desert_18.jpg","","","","",""
"","","","","","image-keyboard-response","357","2.0.0","372409","p0rqdol6vkq","manatee","null","stimuli/gym_63.jpg","null","gym","K","non-repeat","null","313","stimuli/gym_63.jpg","","","","",""
"","","","","","image-keyboard-response","358","2.0.0","373423","p0rqdol6vkq","manatee","null","stimuli/bar_21.jpg","null","bar","L","non-repeat","null","314","stimuli/bar_21.jpg","","","","",""
"","","","","","image-keyboard-response","359","2.0.0","374427","p0rqdol6vkq","manatee","null","stimuli/coast_14.jpg","null","coast","D","non-repeat","null","315","stimuli/coast_14.jpg","","","","",""
"","","","","","image-keyboard-response","360","2.0.0","375445","p0rqdol6vkq","manatee","null","stimuli/stream_36.jpg","null","stream","E","non-repeat","null","316","stimuli/stream_36.jpg","","","","",""
"","","","","","image-keyboard-response","361","2.0.0","376459","p0rqdol6vkq","manatee","null","stimuli/field_25.jpg","null","field","F","non-repeat","null","317","stimuli/field_25.jpg","","","","",""
"","","","","","image-keyboard-response","362","2.0.0","377474","p0rqdol6vkq","manatee","null","stimuli/bridge_55.jpg","null","bridge","A","non-repeat","null","318","stimuli/bridge_55.jpg","","","","",""
"","","","","","image-keyboard-response","363","2.0.0","378479","p0rqdol6vkq","manatee","null","stimuli/street_13.jpg","null","street","B","non-repeat","null","319","stimuli/street_13.jpg","","","","",""
"","","","","","image-keyboard-response","364","2.0.0","379504","p0rqdol6vkq","manatee","null","stimuli/woods_63.jpg","null","woods","C","non-repeat","null","320","stimuli/woods_63.jpg","","","","",""
"","","","","","image-keyboard-response","365","2.0.0","380514","p0rqdol6vkq","manatee","null","stimuli/bathroom_59.jpg","null","bathroom","G","non-repeat","null","321","stimuli/bathroom_59.jpg","","","","",""
"","","","","","image-keyboard-response","366","2.0.0","381525","p0rqdol6vkq","manatee","null","stimuli/bathroom_59.jpg","null","bathroom","G","repeat"," ","321","","","","","",""
"","","","","","image-keyboard-response","367","2.0.0","382539","p0rqdol6vkq","manatee","null","stimuli/kitchen_16.jpg","null","kitchen","H","non-repeat","null","322","stimuli/kitchen_16.jpg","","","","",""
"","","","","","image-keyboard-response","368","2.0.0","383545","p0rqdol6vkq","manatee","null","stimuli/playground_28.jpg","null","playground","I","non-repeat","null","323","stimuli/playground_28.jpg","","","","",""
"","","","","","image-keyboard-response","369","2.0.0","384554","p0rqdol6vkq","manatee","null","stimuli/bridge_55.jpg","null","bridge","A","non-repeat","null","324","stimuli/bridge_55.jpg","","","","",""
"","","","","","image-keyboard-response","370","2.0.0","385570","p0rqdol6vkq","manatee","null","stimuli/street_13.jpg","null","street","B","non-repeat","null","325","stimuli/street_13.jpg","","","","",""
"","","","","","image-keyboard-response","371","2.0.0","386577","p0rqdol6vkq","manatee","null","stimuli/woods_63.jpg","null","woods","C","non-repeat","null","326","stimuli/woods_63.jpg","","","","",""
"","","","","","image-keyboard-response","372","2.0.0","387584","p0rqdol6vkq","manatee","null","stimuli/bathroom_59.jpg","null","bathroom","G","non-repeat","null","327","stimuli/bathroom_59.jpg","","","","",""
"","","","","","image-keyboard-response","373","2.0.0","388589","p0rqdol6vkq","manatee","null","stimuli/kitchen_16.jpg","null","kitchen","H","non-repeat","null","328","stimuli/kitchen_16.jpg","","","","",""
"","","","","","image-keyboard-response","374","2.0.0","389598","p0rqdol6vkq","manatee","null","stimuli/playground_28.jpg","null","playground","I","non-repeat","null","329","stimuli/playground_28.jpg","","","","",""
"","","","","","image-keyboard-response","375","2.0.0","390605","p0rqdol6vkq","manatee","null","stimuli/playground_28.jpg","null","playground","I","repeat"," ","329","","","","","",""
"","","","","","image-keyboard-response","376","2.0.0","391611","p0rqdol6vkq","manatee","null","stimuli/bridge_55.jpg","null","bridge","A","non-repeat","null","330","stimuli/bridge_55.jpg","","","","",""
"","","","","","image-keyboard-response","377","2.0.0","392617","p0rqdol6vkq","manatee","null","stimuli/street_13.jpg","null","street","B","non-repeat","null","331","stimuli/street_13.jpg","","","","",""
"","","","","","image-keyboard-response","378","2.0.0","393621","p0rqdol6vkq","manatee","null","stimuli/woods_63.jpg","null","woods","C","non-repeat","null","332","stimuli/woods_63.jpg","","","","",""
"","","","","","image-keyboard-response","379","2.0.0","394626","p0rqdol6vkq","manatee","null","stimuli/bathroom_59.jpg","null","bathroom","G","non-repeat","null","333","stimuli/bathroom_59.jpg","","","","",""
"","","","","","image-keyboard-response","380","2.0.0","395629","p0rqdol6vkq","manatee","null","stimuli/kitchen_16.jpg","null","kitchen","H","non-repeat","null","334","stimuli/kitchen_16.jpg","","","","",""
"","","","","","image-keyboard-response","381","2.0.0","396637","p0rqdol6vkq","manatee","null","stimuli/playground_28.jpg","null","playground","I","non-repeat","null","335","stimuli/playground_28.jpg","","","","",""
"","","","","","image-keyboard-response","382","2.0.0","397651","p0rqdol6vkq","manatee","249","stimuli/coast_14.jpg"," ","coast","D","non-repeat","null","336","stimuli/coast_14.jpg","","","","",""
"","","","","","image-keyboard-response","383","2.0.0","398664","p0rqdol6vkq","manatee","null","stimuli/stream_36.jpg","null","stream","E","non-repeat","null","337","stimuli/stream_36.jpg","","","","",""
"","","","","","image-keyboard-response","384","2.0.0","399681","p0rqdol6vkq","manatee","null","stimuli/field_25.jpg","null","field","F","non-repeat","null","338","stimuli/field_25.jpg","","","","",""
"","","","","","image-keyboard-response","385","2.0.0","400694","p0rqdol6vkq","manatee","null","stimuli/bridge_55.jpg","null","bridge","A","non-repeat","null","339","stimuli/bridge_55.jpg","","","","",""
"","","","","","image-keyboard-response","386","2.0.0","401710","p0rqdol6vkq","manatee","null","stimuli/street_13.jpg","null","street","B","non-repeat","null","340","stimuli/street_13.jpg","","","","",""
"","","","","","image-keyboard-response","387","2.0.0","402717","p0rqdol6vkq","manatee","null","stimuli/woods_63.jpg","null","woods","C","non-repeat","null","341","stimuli/woods_63.jpg","","","","",""
"","","","","","image-keyboard-response","388","2.0.0","403720","p0rqdol6vkq","manatee","null","stimuli/woods_63.jpg","null","woods","C","repeat"," ","341","","","","","",""
"","","","","","image-keyboard-response","389","2.0.0","404725","p0rqdol6vkq","manatee","null","stimuli/coast_14.jpg","null","coast","D","non-repeat","null","342","stimuli/coast_14.jpg","","","","",""
"","","","","","image-keyboard-response","390","2.0.0","405731","p0rqdol6vkq","manatee","null","stimuli/stream_36.jpg","null","stream","E","non-repeat","null","343","stimuli/stream_36.jpg","","","","",""
"","","","","","image-keyboard-response","391","2.0.0","406743","p0rqdol6vkq","manatee","null","stimuli/field_25.jpg","null","field","F","non-repeat","null","344","stimuli/field_25.jpg","","","","",""
"","","","","","image-keyboard-response","392","2.0.0","407751","p0rqdol6vkq","manatee","745","stimuli/field_25.jpg"," ","field","F","repeat"," ","344","","","","","",""
"","","","","","image-keyboard-response","393","2.0.0","408756","p0rqdol6vkq","manatee","null","stimuli/bridge_55.jpg","null","bridge","A","non-repeat","null","345","stimuli/bridge_55.jpg","","","","",""
"","","","","","image-keyboard-response","394","2.0.0","409768","p0rqdol6vkq","manatee","null","stimuli/street_13.jpg","null","street","B","non-repeat","null","346","stimuli/street_13.jpg","","","","",""
"","","","","","image-keyboard-response","395","2.0.0","410775","p0rqdol6vkq","manatee","null","stimuli/woods_63.jpg","null","woods","C","non-repeat","null","347","stimuli/woods_63.jpg","","","","",""
"","","","","","image-keyboard-response","396","2.0.0","411780","p0rqdol6vkq","manatee","931","stimuli/woods_63.jpg"," ","woods","C","repeat"," ","347","","","","","",""
"","","","","","image-keyboard-response","397","2.0.0","412786","p0rqdol6vkq","manatee","null","stimuli/desert_18.jpg","null","desert","J","non-repeat","null","348","stimuli/desert_18.jpg","","","","",""
"","","","","","image-keyboard-response","398","2.0.0","413804","p0rqdol6vkq","manatee","657","stimuli/desert_18.jpg"," ","desert","J","repeat"," ","348","","","","","",""
"","","","","","image-keyboard-response","399","2.0.0","414812","p0rqdol6vkq","manatee","null","stimuli/gym_63.jpg","null","gym","K","non-repeat","null","349","stimuli/gym_63.jpg","","","","",""
"","","","","","image-keyboard-response","400","2.0.0","415828","p0rqdol6vkq","manatee","null","stimuli/bar_21.jpg","null","bar","L","non-repeat","null","350","stimuli/bar_21.jpg","","","","",""
"","","","","","image-keyboard-response","401","2.0.0","416837","p0rqdol6vkq","manatee","646","stimuli/bar_21.jpg"," ","bar","L","repeat"," ","350","","","","","",""
"","","","","","image-keyboard-response","402","2.0.0","417851","p0rqdol6vkq","manatee","null","stimuli/bathroom_59.jpg","null","bathroom","G","non-repeat","null","351","stimuli/bathroom_59.jpg","","","","",""
"","","","","","image-keyboard-response","403","2.0.0","418858","p0rqdol6vkq","manatee","null","stimuli/kitchen_16.jpg","null","kitchen","H","non-repeat","null","352","stimuli/kitchen_16.jpg","","","","",""
"","","","","","image-keyboard-response","404","2.0.0","419864","p0rqdol6vkq","manatee","null","stimuli/playground_28.jpg","null","playground","I","non-repeat","null","353","stimuli/playground_28.jpg","","","","",""
"","","","","","image-keyboard-response","405","2.0.0","420869","p0rqdol6vkq","manatee","null","stimuli/desert_18.jpg","null","desert","J","non-repeat","null","354","stimuli/desert_18.jpg","","","","",""
"","","","","","image-keyboard-response","406","2.0.0","421880","p0rqdol6vkq","manatee","null","stimuli/gym_63.jpg","null","gym","K","non-repeat","null","355","stimuli/gym_63.jpg","","","","",""
"","","","","","image-keyboard-response","407","2.0.0","422897","p0rqdol6vkq","manatee","null","stimuli/bar_21.jpg","null","bar","L","non-repeat","null","356","stimuli/bar_21.jpg","","","","",""
"","","","","","image-keyboard-response","408","2.0.0","423900","p0rqdol6vkq","manatee","null","stimuli/bar_21.jpg","null","bar","L","repeat"," ","356","","","","","",""
"","","","","","image-keyboard-response","409","2.0.0","424906","p0rqdol6vkq","manatee","null","stimuli/bathroom_59.jpg","null","bathroom","G","non-repeat","null","357","stimuli/bathroom_59.jpg","","","","",""
"","","","","","image-keyboard-response","410","2.0.0","425915","p0rqdol6vkq","manatee","null","stimuli/kitchen_16.jpg","null","kitchen","H","non-repeat","null","358","stimuli/kitchen_16.jpg","","","","",""
"","","","","","image-keyboard-response","411","2.0.0","426922","p0rqdol6vkq","manatee","null","stimuli/playground_28.jpg","null","playground","I","non-repeat","null","359","stimuli/playground_28.jpg","","","","",""
"","","","","","image-keyboard-response","412","2.0.0","427939","p0rqdol6vkq","manatee","null","stimuli/playground_28.jpg","null","playground","I","repeat"," ","359","","","","","",""
"","","","","","image-keyboard-response","413","2.0.0","428952","p0rqdol6vkq","manatee","null","stimuli/coast_14.jpg","null","coast","D","non-repeat","null","360","stimuli/coast_14.jpg","","","","",""
"","","","","","image-keyboard-response","414","2.0.0","429969","p0rqdol6vkq","manatee","null","stimuli/coast_14.jpg","null","coast","D","repeat"," ","360","","","","","",""
"","","","","","image-keyboard-response","415","2.0.0","430979","p0rqdol6vkq","manatee","null","stimuli/stream_36.jpg","null","stream","E","non-repeat","null","361","stimuli/stream_36.jpg","","","","",""
"","","","","","image-keyboard-response","416","2.0.0","431995","p0rqdol6vkq","manatee","null","stimuli/field_25.jpg","null","field","F","non-repeat","null","362","stimuli/field_25.jpg","","","","",""
"","","","","","image-keyboard-response","417","2.0.0","432998","p0rqdol6vkq","manatee","379","stimuli/field_25.jpg"," ","field","F","repeat"," ","362","","","","","",""
"","","","","","image-keyboard-response","418","2.0.0","434015","p0rqdol6vkq","manatee","null","stimuli/desert_18.jpg","null","desert","J","non-repeat","null","363","stimuli/desert_18.jpg","","","","",""
"","","","","","image-keyboard-response","419","2.0.0","435028","p0rqdol6vkq","manatee","null","stimuli/desert_18.jpg","null","desert","J","repeat"," ","363","","","","","",""
"","","","","","image-keyboard-response","420","2.0.0","436031","p0rqdol6vkq","manatee","null","stimuli/gym_63.jpg","null","gym","K","non-repeat","null","364","stimuli/gym_63.jpg","","","","",""
"","","","","","image-keyboard-response","421","2.0.0","437033","p0rqdol6vkq","manatee","null","stimuli/bar_21.jpg","null","bar","L","non-repeat","null","365","stimuli/bar_21.jpg","","","","",""
"","","","","","image-keyboard-response","422","2.0.0","438039","p0rqdol6vkq","manatee","null","stimuli/bathroom_59.jpg","null","bathroom","G","non-repeat","null","366","stimuli/bathroom_59.jpg","","","","",""
"","","","","","image-keyboard-response","423","2.0.0","439044","p0rqdol6vkq","manatee","null","stimuli/kitchen_16.jpg","null","kitchen","H","non-repeat","null","367","stimuli/kitchen_16.jpg","","","","",""
"","","","","","image-keyboard-response","424","2.0.0","440055","p0rqdol6vkq","manatee","null","stimuli/playground_28.jpg","null","playground","I","non-repeat","null","368","stimuli/playground_28.jpg","","","","",""
"","","","","","image-keyboard-response","425","2.0.0","441072","p0rqdol6vkq","manatee","null","stimuli/desert_18.jpg","null","desert","J","non-repeat","null","369","stimuli/desert_18.jpg","","","","",""
"","","","","","image-keyboard-response","426","2.0.0","442075","p0rqdol6vkq","manatee","null","stimuli/gym_63.jpg","null","gym","K","non-repeat","null","370","stimuli/gym_63.jpg","","","","",""
"","","","","","image-keyboard-response","427","2.0.0","443080","p0rqdol6vkq","manatee","null","stimuli/bar_21.jpg","null","bar","L","non-repeat","null","371","stimuli/bar_21.jpg","","","","",""
"","","","","","image-keyboard-response","428","2.0.0","444090","p0rqdol6vkq","manatee","null","stimuli/bridge_55.jpg","null","bridge","A","non-repeat","null","372","stimuli/bridge_55.jpg","","","","",""
"","","","","","image-keyboard-response","429","2.0.0","445107","p0rqdol6vkq","manatee","null","stimuli/street_13.jpg","null","street","B","non-repeat","null","373","stimuli/street_13.jpg","","","","",""
"","","","","","image-keyboard-response","430","2.0.0","446116","p0rqdol6vkq","manatee","null","stimuli/woods_63.jpg","null","woods","C","non-repeat","null","374","stimuli/woods_63.jpg","","","","",""
"","","","","","image-keyboard-response","431","2.0.0","447125","p0rqdol6vkq","manatee","605","stimuli/woods_63.jpg"," ","woods","C","repeat"," ","374","","","","","",""
"","","","","","image-keyboard-response","432","2.0.0","448128","p0rqdol6vkq","manatee","null","stimuli/coast_14.jpg","null","coast","D","non-repeat","null","375","stimuli/coast_14.jpg","","","","",""
"","","","","","image-keyboard-response","433","2.0.0","449146","p0rqdol6vkq","manatee","null","stimuli/stream_36.jpg","null","stream","E","non-repeat","null","376","stimuli/stream_36.jpg","","","","",""
"","","","","","image-keyboard-response","434","2.0.0","450160","p0rqdol6vkq","manatee","null","stimuli/field_25.jpg","null","field","F","non-repeat","null","377","stimuli/field_25.jpg","","","","",""
"","","","","","image-keyboard-response","435","2.0.0","451169","p0rqdol6vkq","manatee","null","stimuli/bathroom_59.jpg","null","bathroom","G","non-repeat","null","378","stimuli/bathroom_59.jpg","","","","",""
"","","","","","image-keyboard-response","436","2.0.0","452175","p0rqdol6vkq","manatee","null","stimuli/kitchen_16.jpg","null","kitchen","H","non-repeat","null","379","stimuli/kitchen_16.jpg","","","","",""
"","","","","","image-keyboard-response","437","2.0.0","453179","p0rqdol6vkq","manatee","null","stimuli/playground_28.jpg","null","playground","I","non-repeat","null","380","stimuli/playground_28.jpg","","","","",""
"","","","","","image-keyboard-response","438","2.0.0","454186","p0rqdol6vkq","manatee","null","stimuli/bridge_55.jpg","null","bridge","A","non-repeat","null","381","stimuli/bridge_55.jpg","","","","",""
"","","","","","image-keyboard-response","439","2.0.0","455196","p0rqdol6vkq","manatee","null","stimuli/street_13.jpg","null","street","B","non-repeat","null","382","stimuli/street_13.jpg","","","","",""
"","","","","","image-keyboard-response","440","2.0.0","456203","p0rqdol6vkq","manatee","null","stimuli/woods_63.jpg","null","woods","C","non-repeat","null","383","stimuli/woods_63.jpg","","","","",""
"","","","","","image-keyboard-response","441","2.0.0","457207","p0rqdol6vkq","manatee","null","stimuli/bathroom_59.jpg","null","bathroom","G","non-repeat","null","384","stimuli/bathroom_59.jpg","","","","",""
"","","","","","image-keyboard-response","442","2.0.0","458220","p0rqdol6vkq","manatee","null","stimuli/kitchen_16.jpg","null","kitchen","H","non-repeat","null","385","stimuli/kitchen_16.jpg","","","","",""
"","","","","","image-keyboard-response","443","2.0.0","459224","p0rqdol6vkq","manatee","784","stimuli/playground_28.jpg"," ","playground","I","non-repeat","null","386","stimuli/playground_28.jpg","","","","",""
"","","","","","image-keyboard-response","444","2.0.0","460226","p0rqdol6vkq","manatee","null","stimuli/desert_18.jpg","null","desert","J","non-repeat","null","387","stimuli/desert_18.jpg","","","","",""
"","","","","","image-keyboard-response","445","2.0.0","461229","p0rqdol6vkq","manatee","null","stimuli/gym_63.jpg","null","gym","K","non-repeat","null","388","stimuli/gym_63.jpg","","","","",""
"","","","","","image-keyboard-response","446","2.0.0","462238","p0rqdol6vkq","manatee","null","stimuli/bar_21.jpg","null","bar","L","non-repeat","null","389","stimuli/bar_21.jpg","","","","",""
"","","","","","image-keyboard-response","447","2.0.0","463246","p0rqdol6vkq","manatee","null","stimuli/bridge_55.jpg","null","bridge","A","non-repeat","null","390","stimuli/bridge_55.jpg","","","","",""
"","","","","","image-keyboard-response","448","2.0.0","464251","p0rqdol6vkq","manatee","null","stimuli/bridge_55.jpg","null","bridge","A","repeat"," ","390","","","","","",""
"","","","","","image-keyboard-response","449","2.0.0","465264","p0rqdol6vkq","manatee","null","stimuli/street_13.jpg","null","street","B","non-repeat","null","391","stimuli/street_13.jpg","","","","",""
"","","","","","image-keyboard-response","450","2.0.0","466276","p0rqdol6vkq","manatee","null","stimuli/woods_63.jpg","null","woods","C","non-repeat","null","392","stimuli/woods_63.jpg","","","","",""
"","","","","","image-keyboard-response","451","2.0.0","467285","p0rqdol6vkq","manatee","null","stimuli/bathroom_59.jpg","null","bathroom","G","non-repeat","null","393","stimuli/bathroom_59.jpg","","","","",""
"","","","","","image-keyboard-response","452","2.0.0","468290","p0rqdol6vkq","manatee","null","stimuli/kitchen_16.jpg","null","kitchen","H","non-repeat","null","394","stimuli/kitchen_16.jpg","","","","",""
"","","","","","image-keyboard-response","453","2.0.0","469293","p0rqdol6vkq","manatee","null","stimuli/playground_28.jpg","null","playground","I","non-repeat","null","395","stimuli/playground_28.jpg","","","","",""
"","","","","","image-keyboard-response","454","2.0.0","470301","p0rqdol6vkq","manatee","null","stimuli/coast_14.jpg","null","coast","D","non-repeat","null","396","stimuli/coast_14.jpg","","","","",""
"","","","","","image-keyboard-response","455","2.0.0","471311","p0rqdol6vkq","manatee","null","stimuli/stream_36.jpg","null","stream","E","non-repeat","null","397","stimuli/stream_36.jpg","","","","",""
"","","","","","image-keyboard-response","456","2.0.0","472320","p0rqdol6vkq","manatee","null","stimuli/field_25.jpg","null","field","F","non-repeat","null","398","stimuli/field_25.jpg","","","","",""
"","","","","","image-keyboard-response","457","2.0.0","473338","p0rqdol6vkq","manatee","null","stimuli/bathroom_59.jpg","null","bathroom","G","non-repeat","null","399","stimuli/bathroom_59.jpg","","","","",""
"","","","","","image-keyboard-response","458","2.0.0","474355","p0rqdol6vkq","manatee","null","stimuli/kitchen_16.jpg","null","kitchen","H","non-repeat","null","400","stimuli/kitchen_16.jpg","","","","",""
"","","","","","image-keyboard-response","459","2.0.0","475368","p0rqdol6vkq","manatee","null","stimuli/playground_28.jpg","null","playground","I","non-repeat","null","401","stimuli/playground_28.jpg","","","","",""
"","","","","","image-keyboard-response","460","2.0.0","476384","p0rqdol6vkq","manatee","null","stimuli/bridge_55.jpg","null","bridge","A","non-repeat","null","402","stimuli/bridge_55.jpg","","","","",""
"","","","","","image-keyboard-response","461","2.0.0","477390","p0rqdol6vkq","manatee","null","stimuli/street_13.jpg","null","street","B","non-repeat","null","403","stimuli/street_13.jpg","","","","",""
"","","","","","image-keyboard-response","462","2.0.0","478395","p0rqdol6vkq","manatee","null","stimuli/woods_63.jpg","null","woods","C","non-repeat","null","404","stimuli/woods_63.jpg","","","","",""
"","","","","","image-keyboard-response","463","2.0.0","479411","p0rqdol6vkq","manatee","null","stimuli/bathroom_59.jpg","null","bathroom","G","non-repeat","null","405","stimuli/bathroom_59.jpg","","","","",""
"","","","","","image-keyboard-response","464","2.0.0","480428","p0rqdol6vkq","manatee","null","stimuli/bathroom_59.jpg","null","bathroom","G","repeat"," ","405","","","","","",""
"","","","","","image-keyboard-response","465","2.0.0","481437","p0rqdol6vkq","manatee","null","stimuli/kitchen_16.jpg","null","kitchen","H","non-repeat","null","406","stimuli/kitchen_16.jpg","","","","",""
"","","","","","image-keyboard-response","466","2.0.0","482441","p0rqdol6vkq","manatee","null","stimuli/playground_28.jpg","null","playground","I","non-repeat","null","407","stimuli/playground_28.jpg","","","","",""
"","","","","","html-keyboard-response","467","2.0.0","501109","p0rqdol6vkq","manatee","18666","
    <div style='width:900px;margin: auto;'><p>In the next part of the experiment, we want to see how well you learned the structure in the stream of images.</p>
    <p>On each trial, you will see two sequences of three images, sequence 1 and 2. We will ask you to indicate which sequence was more familiar based on the first part of the experiment.</p>
    <p>Press 1 if the first sequence (sequence 1) felt more familiar. Press 2 if the second sequence (sequence 2) felt more familiar.</p>
    <p>Press any key to begin.</p></div>","Enter","","","","","","","","","","",""
"","","","","","html-keyboard-response","468","2.0.0","502112","p0rqdol6vkq","manatee","null","<p>Sequence 1</p>","null","","","","","","","","","","",""
"","","","","","image-keyboard-response","469","2.0.0","503121","p0rqdol6vkq","manatee","null","stimuli/bridge_55.jpg","null","","","","","","","","","","",""
"","","","","","image-keyboard-response","470","2.0.0","504126","p0rqdol6vkq","manatee","null","stimuli/street_13.jpg","null","","","","","","","","","","",""
"","","","","","image-keyboard-response","471","2.0.0","505128","p0rqdol6vkq","manatee","null","stimuli/woods_63.jpg","null","","","","","","","","","","",""
"","","","","","html-keyboard-response","472","2.0.0","506143","p0rqdol6vkq","manatee","null","<p></p>","null","","","","","","","","","","",""
"","","","","","html-keyboard-response","473","2.0.0","507145","p0rqdol6vkq","manatee","null","<p>Sequence 2</p>","null","","","","","","","","","","",""
"","","","","","image-keyboard-response","474","2.0.0","508154","p0rqdol6vkq","manatee","null","stimuli/desert_18.jpg","null","","","","","","","","","","",""
"","","","","","image-keyboard-response","475","2.0.0","509165","p0rqdol6vkq","manatee","null","stimuli/street_13.jpg","null","","","","","","","","","","",""
"","","","","","image-keyboard-response","476","2.0.0","510173","p0rqdol6vkq","manatee","null","stimuli/field_25.jpg","null","","","","","","","","","","",""
"","","","","","html-keyboard-response","477","2.0.0","512347","p0rqdol6vkq","manatee","2173","<p>Press '1' if the first sequence was familiar, '2' if the second was.</p>","1","","","1","","","","[""A"",""B"",""C""]","[""J"",""B"",""F""]","true","[""<p>Sequence 1</p>"",""stimuli/bridge_55.jpg"",""stimuli/street_13.jpg"",""stimuli/woods_63.jpg""]","[""<p>Sequence 2</p>"",""stimuli/desert_18.jpg"",""stimuli/street_13.jpg"",""stimuli/field_25.jpg""]"
"","","","","","html-keyboard-response","478","2.0.0","513362","p0rqdol6vkq","manatee","null","<p>Sequence 1</p>","null","","","","","","","","","","",""
"","","","","","image-keyboard-response","479","2.0.0","514378","p0rqdol6vkq","manatee","null","stimuli/coast_14.jpg","null","","","","","","","","","","",""
"","","","","","image-keyboard-response","480","2.0.0","515389","p0rqdol6vkq","manatee","null","stimuli/kitchen_16.jpg","null","","","","","","","","","","",""
"","","","","","image-keyboard-response","481","2.0.0","516392","p0rqdol6vkq","manatee","null","stimuli/bar_21.jpg","null","","","","","","","","","","",""
"","","","","","html-keyboard-response","482","2.0.0","517393","p0rqdol6vkq","manatee","null","<p></p>","null","","","","","","","","","","",""
"","","","","","html-keyboard-response","483","2.0.0","518395","p0rqdol6vkq","manatee","null","<p>Sequence 2</p>","null","","","","","","","","","","",""
"","","","","","image-keyboard-response","484","2.0.0","519402","p0rqdol6vkq","manatee","null","stimuli/coast_14.jpg","null","","","","","","","","","","",""
"","","","","","image-keyboard-response","485","2.0.0","520414","p0rqdol6vkq","manatee","null","stimuli/stream_36.jpg","null","","","","","","","","","","",""
"","","","","","image-keyboard-response","486","2.0.0","521427","p0rqdol6vkq","manatee","null","stimuli/field_25.jpg","null","","","","","","","","","","",""
"","","","","","html-keyboard-response","487","2.0.0","522194","p0rqdol6vkq","manatee","766","<p>Press '1' if the first sequence was familiar, '2' if the second was.</p>","2","","","2","","","","[""D"",""E"",""F""]","[""D"",""H"",""L""]","true","[""<p>Sequence 1</p>"",""stimuli/coast_14.jpg"",""stimuli/kitchen_16.jpg"",""stimuli/bar_21.jpg""]","[""<p>Sequence 2</p>"",""stimuli/coast_14.jpg"",""stimuli/stream_36.jpg"",""stimuli/field_25.jpg""]"
"","","","","","html-keyboard-response","488","2.0.0","523204","p0rqdol6vkq","manatee","null","<p>Sequence 1</p>","null","","","","","","","","","","",""
"","","","","","image-keyboard-response","489","2.0.0","524221","p0rqdol6vkq","manatee","null","stimuli/bridge_55.jpg","null","","","","","","","","","","",""
"","","","","","image-keyboard-response","490","2.0.0","525237","p0rqdol6vkq","manatee","null","stimuli/street_13.jpg","null","","","","","","","","","","",""
"","","","","","image-keyboard-response","491","2.0.0","526247","p0rqdol6vkq","manatee","null","stimuli/woods_63.jpg","null","","","","","","","","","","",""
"","","","","","html-keyboard-response","492","2.0.0","527249","p0rqdol6vkq","manatee","null","<p></p>","null","","","","","","","","","","",""
"","","","","","html-keyboard-response","493","2.0.0","528263","p0rqdol6vkq","manatee","null","<p>Sequence 2</p>","null","","","","","","","","","","",""
"","","","","","image-keyboard-response","494","2.0.0","529268","p0rqdol6vkq","manatee","null","stimuli/bridge_55.jpg","null","","","","","","","","","","",""
"","","","","","image-keyboard-response","495","2.0.0","530274","p0rqdol6vkq","manatee","null","stimuli/stream_36.jpg","null","","","","","","","","","","",""
"","","","","","image-keyboard-response","496","2.0.0","531291","p0rqdol6vkq","manatee","null","stimuli/playground_28.jpg","null","","","","","","","","","","",""
