"success","timeout","failed_images","failed_audio","failed_video","trial_type","trial_index","plugin_version","time_elapsed","random_id","participant","rt","stimulus","response","category","letter","correct_response","correct_response_key","trial_counter","current_image","test_triplet","foil_triplet","correct","firstSequencePaths","secondSequencePaths"
"true","false","[]","[]","[]","preload","0","2.0.0","227","p0skpjr7w1p","flamingo","","","","","","","","","","","","","",""
"true","","","","","fullscreen","1","null","1016670","p0skpjr7w1p","flamingo","991994","","","","","","","","","","","","",""
"","","","","","html-keyboard-response","2","2.0.0","1022317","p0skpjr7w1p","flamingo","5646","Welcome to the experiment. Press any key to begin."," ","","","","","","","","","","",""
"","","","","","survey-text","3","2.0.0","1025517","p0skpjr7w1p","flamingo","3197","","{""participant_id"":""flamingo""}","","","","","","","","","","",""
"","","","","","html-keyboard-response","4","2.0.0","1033778","p0skpjr7w1p","flamingo","8260","
  <p>For this trial, you will see a series of images.</p>
  <p><b>Press the spacebar whenever you see the same image appear twice in a row.</b></p>
  <p>In other words, whenever the same image repeats back to back, press the spacebar.</p>
  <p>Press any key to begin.</p>"," ","","","","","","","","","","",""
"","","","","","image-keyboard-response","5","2.0.0","1034781","p0skpjr7w1p","flamingo","null","stimuli/field_23.jpg","null","field","D","non-repeat","null","0","stimuli/field_23.jpg","","","","",""
"","","","","","image-keyboard-response","6","2.0.0","1035784","p0skpjr7w1p","flamingo","983","stimuli/field_23.jpg"," ","field","D","repeat"," ","0","","","","","",""
"","","","","","image-keyboard-response","7","2.0.0","1036787","p0skpjr7w1p","flamingo","null","stimuli/bathroom_24.jpg","null","bathroom","E","non-repeat","null","1","stimuli/bathroom_24.jpg","","","","",""
"","","","","","image-keyboard-response","8","2.0.0","1037790","p0skpjr7w1p","flamingo","null","stimuli/bridge_12.jpg","null","bridge","F","non-repeat","null","2","stimuli/bridge_12.jpg","","","","",""
"","","","","","image-keyboard-response","9","2.0.0","1038793","p0skpjr7w1p","flamingo","null","stimuli/coast_25.jpg","null","coast","J","non-repeat","null","3","stimuli/coast_25.jpg","","","","",""
"","","","","","image-keyboard-response","10","2.0.0","1039795","p0skpjr7w1p","flamingo","387","stimuli/coast_25.jpg"," ","coast","J","repeat"," ","3","","","","","",""
"","","","","","image-keyboard-response","11","2.0.0","1040799","p0skpjr7w1p","flamingo","null","stimuli/woods_33.jpg","null","woods","K","non-repeat","null","4","stimuli/woods_33.jpg","","","","",""
"","","","","","image-keyboard-response","12","2.0.0","1041801","p0skpjr7w1p","flamingo","null","stimuli/kitchen_43.jpg","null","kitchen","L","non-repeat","null","5","stimuli/kitchen_43.jpg","","","","",""
"","","","","","image-keyboard-response","13","2.0.0","1042805","p0skpjr7w1p","flamingo","500","stimuli/kitchen_43.jpg"," ","kitchen","L","repeat"," ","5","","","","","",""
"","","","","","image-keyboard-response","14","2.0.0","1043809","p0skpjr7w1p","flamingo","null","stimuli/stream_37.jpg","null","stream","G","non-repeat","null","6","stimuli/stream_37.jpg","","","","",""
"","","","","","image-keyboard-response","15","2.0.0","1044812","p0skpjr7w1p","flamingo","null","stimuli/desert_21.jpg","null","desert","H","non-repeat","null","7","stimuli/desert_21.jpg","","","","",""
"","","","","","image-keyboard-response","16","2.0.0","1045816","p0skpjr7w1p","flamingo","null","stimuli/bar_16.jpg","null","bar","I","non-repeat","null","8","stimuli/bar_16.jpg","","","","",""
"","","","","","image-keyboard-response","17","2.0.0","1046819","p0skpjr7w1p","flamingo","473","stimuli/bar_16.jpg"," ","bar","I","repeat"," ","8","","","","","",""
"","","","","","image-keyboard-response","18","2.0.0","1047822","p0skpjr7w1p","flamingo","null","stimuli/gym_4.jpg","null","gym","A","non-repeat","null","9","stimuli/gym_4.jpg","","","","",""
"","","","","","image-keyboard-response","19","2.0.0","1048825","p0skpjr7w1p","flamingo","null","stimuli/playground_16.jpg","null","playground","B","non-repeat","null","10","stimuli/playground_16.jpg","","","","",""
"","","","","","image-keyboard-response","20","2.0.0","1049828","p0skpjr7w1p","flamingo","null","stimuli/street_23.jpg","null","street","C","non-repeat","null","11","stimuli/street_23.jpg","","","","",""
"","","","","","image-keyboard-response","21","2.0.0","1050831","p0skpjr7w1p","flamingo","null","stimuli/field_23.jpg","null","field","D","non-repeat","null","12","stimuli/field_23.jpg","","","","",""
"","","","","","image-keyboard-response","22","2.0.0","1051834","p0skpjr7w1p","flamingo","null","stimuli/bathroom_24.jpg","null","bathroom","E","non-repeat","null","13","stimuli/bathroom_24.jpg","","","","",""
"","","","","","image-keyboard-response","23","2.0.0","1052837","p0skpjr7w1p","flamingo","null","stimuli/bridge_12.jpg","null","bridge","F","non-repeat","null","14","stimuli/bridge_12.jpg","","","","",""
"","","","","","image-keyboard-response","24","2.0.0","1053841","p0skpjr7w1p","flamingo","null","stimuli/gym_4.jpg","null","gym","A","non-repeat","null","15","stimuli/gym_4.jpg","","","","",""
"","","","","","image-keyboard-response","25","2.0.0","1054844","p0skpjr7w1p","flamingo","390","stimuli/playground_16.jpg"," ","playground","B","non-repeat","null","16","stimuli/playground_16.jpg","","","","",""
"","","","","","image-keyboard-response","26","2.0.0","1055847","p0skpjr7w1p","flamingo","null","stimuli/street_23.jpg","null","street","C","non-repeat","null","17","stimuli/street_23.jpg","","","","",""
"","","","","","image-keyboard-response","27","2.0.0","1056851","p0skpjr7w1p","flamingo","416","stimuli/street_23.jpg"," ","street","C","repeat"," ","17","","","","","",""
"","","","","","image-keyboard-response","28","2.0.0","1057855","p0skpjr7w1p","flamingo","null","stimuli/coast_25.jpg","null","coast","J","non-repeat","null","18","stimuli/coast_25.jpg","","","","",""
"","","","","","image-keyboard-response","29","2.0.0","1058858","p0skpjr7w1p","flamingo","null","stimuli/woods_33.jpg","null","woods","K","non-repeat","null","19","stimuli/woods_33.jpg","","","","",""
"","","","","","image-keyboard-response","30","2.0.0","1059861","p0skpjr7w1p","flamingo","null","stimuli/kitchen_43.jpg","null","kitchen","L","non-repeat","null","20","stimuli/kitchen_43.jpg","","","","",""
"","","","","","image-keyboard-response","31","2.0.0","1060865","p0skpjr7w1p","flamingo","458","stimuli/kitchen_43.jpg"," ","kitchen","L","repeat"," ","20","","","","","",""
"","","","","","image-keyboard-response","32","2.0.0","1061868","p0skpjr7w1p","flamingo","null","stimuli/field_23.jpg","null","field","D","non-repeat","null","21","stimuli/field_23.jpg","","","","",""
"","","","","","image-keyboard-response","33","2.0.0","1062872","p0skpjr7w1p","flamingo","null","stimuli/bathroom_24.jpg","null","bathroom","E","non-repeat","null","22","stimuli/bathroom_24.jpg","","","","",""
"","","","","","image-keyboard-response","34","2.0.0","1063875","p0skpjr7w1p","flamingo","null","stimuli/bridge_12.jpg","null","bridge","F","non-repeat","null","23","stimuli/bridge_12.jpg","","","","",""
"","","","","","image-keyboard-response","35","2.0.0","1064878","p0skpjr7w1p","flamingo","null","stimuli/stream_37.jpg","null","stream","G","non-repeat","null","24","stimuli/stream_37.jpg","","","","",""
"","","","","","image-keyboard-response","36","2.0.0","1065881","p0skpjr7w1p","flamingo","null","stimuli/desert_21.jpg","null","desert","H","non-repeat","null","25","stimuli/desert_21.jpg","","","","",""
"","","","","","image-keyboard-response","37","2.0.0","1066883","p0skpjr7w1p","flamingo","null","stimuli/bar_16.jpg","null","bar","I","non-repeat","null","26","stimuli/bar_16.jpg","","","","",""
"","","","","","image-keyboard-response","38","2.0.0","1067886","p0skpjr7w1p","flamingo","439","stimuli/bar_16.jpg"," ","bar","I","repeat"," ","26","","","","","",""
"","","","","","image-keyboard-response","39","2.0.0","1068889","p0skpjr7w1p","flamingo","null","stimuli/field_23.jpg","null","field","D","non-repeat","null","27","stimuli/field_23.jpg","","","","",""
"","","","","","image-keyboard-response","40","2.0.0","1069892","p0skpjr7w1p","flamingo","null","stimuli/bathroom_24.jpg","null","bathroom","E","non-repeat","null","28","stimuli/bathroom_24.jpg","","","","",""
"","","","","","image-keyboard-response","41","2.0.0","1070895","p0skpjr7w1p","flamingo","null","stimuli/bridge_12.jpg","null","bridge","F","non-repeat","null","29","stimuli/bridge_12.jpg","","","","",""
"","","","","","image-keyboard-response","42","2.0.0","1071897","p0skpjr7w1p","flamingo","null","stimuli/gym_4.jpg","null","gym","A","non-repeat","null","30","stimuli/gym_4.jpg","","","","",""
"","","","","","image-keyboard-response","43","2.0.0","1072900","p0skpjr7w1p","flamingo","560","stimuli/gym_4.jpg"," ","gym","A","repeat"," ","30","","","","","",""
"","","","","","image-keyboard-response","44","2.0.0","1073903","p0skpjr7w1p","flamingo","null","stimuli/playground_16.jpg","null","playground","B","non-repeat","null","31","stimuli/playground_16.jpg","","","","",""
"","","","","","image-keyboard-response","45","2.0.0","1074905","p0skpjr7w1p","flamingo","null","stimuli/street_23.jpg","null","street","C","non-repeat","null","32","stimuli/street_23.jpg","","","","",""
"","","","","","image-keyboard-response","46","2.0.0","1075908","p0skpjr7w1p","flamingo","null","stimuli/coast_25.jpg","null","coast","J","non-repeat","null","33","stimuli/coast_25.jpg","","","","",""
"","","","","","image-keyboard-response","47","2.0.0","1076911","p0skpjr7w1p","flamingo","null","stimuli/woods_33.jpg","null","woods","K","non-repeat","null","34","stimuli/woods_33.jpg","","","","",""
"","","","","","image-keyboard-response","48","2.0.0","1077914","p0skpjr7w1p","flamingo","null","stimuli/kitchen_43.jpg","null","kitchen","L","non-repeat","null","35","stimuli/kitchen_43.jpg","","","","",""
"","","","","","image-keyboard-response","49","2.0.0","1078918","p0skpjr7w1p","flamingo","555","stimuli/kitchen_43.jpg"," ","kitchen","L","repeat"," ","35","","","","","",""
"","","","","","image-keyboard-response","50","2.0.0","1079921","p0skpjr7w1p","flamingo","null","stimuli/gym_4.jpg","null","gym","A","non-repeat","null","36","stimuli/gym_4.jpg","","","","",""
"","","","","","image-keyboard-response","51","2.0.0","1080924","p0skpjr7w1p","flamingo","415","stimuli/gym_4.jpg"," ","gym","A","repeat"," ","36","","","","","",""
"","","","","","image-keyboard-response","52","2.0.0","1081928","p0skpjr7w1p","flamingo","null","stimuli/playground_16.jpg","null","playground","B","non-repeat","null","37","stimuli/playground_16.jpg","","","","",""
"","","","","","image-keyboard-response","53","2.0.0","1082931","p0skpjr7w1p","flamingo","null","stimuli/street_23.jpg","null","street","C","non-repeat","null","38","stimuli/street_23.jpg","","","","",""
"","","","","","image-keyboard-response","54","2.0.0","1083935","p0skpjr7w1p","flamingo","null","stimuli/field_23.jpg","null","field","D","non-repeat","null","39","stimuli/field_23.jpg","","","","",""
"","","","","","image-keyboard-response","55","2.0.0","1084937","p0skpjr7w1p","flamingo","null","stimuli/bathroom_24.jpg","null","bathroom","E","non-repeat","null","40","stimuli/bathroom_24.jpg","","","","",""
"","","","","","image-keyboard-response","56","2.0.0","1085941","p0skpjr7w1p","flamingo","null","stimuli/bridge_12.jpg","null","bridge","F","non-repeat","null","41","stimuli/bridge_12.jpg","","","","",""
"","","","","","image-keyboard-response","57","2.0.0","1086944","p0skpjr7w1p","flamingo","null","stimuli/coast_25.jpg","null","coast","J","non-repeat","null","42","stimuli/coast_25.jpg","","","","",""
"","","","","","image-keyboard-response","58","2.0.0","1087946","p0skpjr7w1p","flamingo","null","stimuli/woods_33.jpg","null","woods","K","non-repeat","null","43","stimuli/woods_33.jpg","","","","",""
"","","","","","image-keyboard-response","59","2.0.0","1088949","p0skpjr7w1p","flamingo","null","stimuli/kitchen_43.jpg","null","kitchen","L","non-repeat","null","44","stimuli/kitchen_43.jpg","","","","",""
"","","","","","image-keyboard-response","60","2.0.0","1089953","p0skpjr7w1p","flamingo","null","stimuli/field_23.jpg","null","field","D","non-repeat","null","45","stimuli/field_23.jpg","","","","",""
"","","","","","image-keyboard-response","61","2.0.0","1090956","p0skpjr7w1p","flamingo","null","stimuli/bathroom_24.jpg","null","bathroom","E","non-repeat","null","46","stimuli/bathroom_24.jpg","","","","",""
"","","","","","image-keyboard-response","62","2.0.0","1091960","p0skpjr7w1p","flamingo","null","stimuli/bridge_12.jpg","null","bridge","F","non-repeat","null","47","stimuli/bridge_12.jpg","","","","",""
"","","","","","image-keyboard-response","63","2.0.0","1092963","p0skpjr7w1p","flamingo","null","stimuli/gym_4.jpg","null","gym","A","non-repeat","null","48","stimuli/gym_4.jpg","","","","",""
"","","","","","image-keyboard-response","64","2.0.0","1093967","p0skpjr7w1p","flamingo","null","stimuli/playground_16.jpg","null","playground","B","non-repeat","null","49","stimuli/playground_16.jpg","","","","",""
"","","","","","image-keyboard-response","65","2.0.0","1094970","p0skpjr7w1p","flamingo","null","stimuli/street_23.jpg","null","street","C","non-repeat","null","50","stimuli/street_23.jpg","","","","",""
"","","","","","image-keyboard-response","66","2.0.0","1095973","p0skpjr7w1p","flamingo","null","stimuli/stream_37.jpg","null","stream","G","non-repeat","null","51","stimuli/stream_37.jpg","","","","",""
"","","","","","image-keyboard-response","67","2.0.0","1096976","p0skpjr7w1p","flamingo","null","stimuli/desert_21.jpg","null","desert","H","non-repeat","null","52","stimuli/desert_21.jpg","","","","",""
"","","","","","image-keyboard-response","68","2.0.0","1097979","p0skpjr7w1p","flamingo","null","stimuli/bar_16.jpg","null","bar","I","non-repeat","null","53","stimuli/bar_16.jpg","","","","",""
"","","","","","image-keyboard-response","69","2.0.0","1098982","p0skpjr7w1p","flamingo","null","stimuli/gym_4.jpg","null","gym","A","non-repeat","null","54","stimuli/gym_4.jpg","","","","",""
"","","","","","image-keyboard-response","70","2.0.0","1099985","p0skpjr7w1p","flamingo","null","stimuli/playground_16.jpg","null","playground","B","non-repeat","null","55","stimuli/playground_16.jpg","","","","",""
"","","","","","image-keyboard-response","71","2.0.0","1100989","p0skpjr7w1p","flamingo","null","stimuli/street_23.jpg","null","street","C","non-repeat","null","56","stimuli/street_23.jpg","","","","",""
"","","","","","image-keyboard-response","72","2.0.0","1101991","p0skpjr7w1p","flamingo","null","stimuli/coast_25.jpg","null","coast","J","non-repeat","null","57","stimuli/coast_25.jpg","","","","",""
"","","","","","image-keyboard-response","73","2.0.0","1102995","p0skpjr7w1p","flamingo","null","stimuli/woods_33.jpg","null","woods","K","non-repeat","null","58","stimuli/woods_33.jpg","","","","",""
"","","","","","image-keyboard-response","74","2.0.0","1103998","p0skpjr7w1p","flamingo","null","stimuli/kitchen_43.jpg","null","kitchen","L","non-repeat","null","59","stimuli/kitchen_43.jpg","","","","",""
"","","","","","image-keyboard-response","75","2.0.0","1105001","p0skpjr7w1p","flamingo","null","stimuli/field_23.jpg","null","field","D","non-repeat","null","60","stimuli/field_23.jpg","","","","",""
"","","","","","image-keyboard-response","76","2.0.0","1106005","p0skpjr7w1p","flamingo","null","stimuli/bathroom_24.jpg","null","bathroom","E","non-repeat","null","61","stimuli/bathroom_24.jpg","","","","",""
"","","","","","image-keyboard-response","77","2.0.0","1107009","p0skpjr7w1p","flamingo","null","stimuli/bridge_12.jpg","null","bridge","F","non-repeat","null","62","stimuli/bridge_12.jpg","","","","",""
"","","","","","image-keyboard-response","78","2.0.0","1108012","p0skpjr7w1p","flamingo","null","stimuli/stream_37.jpg","null","stream","G","non-repeat","null","63","stimuli/stream_37.jpg","","","","",""
"","","","","","image-keyboard-response","79","2.0.0","1109016","p0skpjr7w1p","flamingo","null","stimuli/desert_21.jpg","null","desert","H","non-repeat","null","64","stimuli/desert_21.jpg","","","","",""
"","","","","","image-keyboard-response","80","2.0.0","1110020","p0skpjr7w1p","flamingo","null","stimuli/bar_16.jpg","null","bar","I","non-repeat","null","65","stimuli/bar_16.jpg","","","","",""
"","","","","","image-keyboard-response","81","2.0.0","1111023","p0skpjr7w1p","flamingo","null","stimuli/field_23.jpg","null","field","D","non-repeat","null","66","stimuli/field_23.jpg","","","","",""
"","","","","","image-keyboard-response","82","2.0.0","1112027","p0skpjr7w1p","flamingo","null","stimuli/bathroom_24.jpg","null","bathroom","E","non-repeat","null","67","stimuli/bathroom_24.jpg","","","","",""
"","","","","","image-keyboard-response","83","2.0.0","1113030","p0skpjr7w1p","flamingo","null","stimuli/bridge_12.jpg","null","bridge","F","non-repeat","null","68","stimuli/bridge_12.jpg","","","","",""
"","","","","","image-keyboard-response","84","2.0.0","1114033","p0skpjr7w1p","flamingo","null","stimuli/gym_4.jpg","null","gym","A","non-repeat","null","69","stimuli/gym_4.jpg","","","","",""
"","","","","","image-keyboard-response","85","2.0.0","1115035","p0skpjr7w1p","flamingo","null","stimuli/playground_16.jpg","null","playground","B","non-repeat","null","70","stimuli/playground_16.jpg","","","","",""
"","","","","","image-keyboard-response","86","2.0.0","1116038","p0skpjr7w1p","flamingo","null","stimuli/street_23.jpg","null","street","C","non-repeat","null","71","stimuli/street_23.jpg","","","","",""
"","","","","","image-keyboard-response","87","2.0.0","1117042","p0skpjr7w1p","flamingo","null","stimuli/stream_37.jpg","null","stream","G","non-repeat","null","72","stimuli/stream_37.jpg","","","","",""
"","","","","","image-keyboard-response","88","2.0.0","1118045","p0skpjr7w1p","flamingo","null","stimuli/desert_21.jpg","null","desert","H","non-repeat","null","73","stimuli/desert_21.jpg","","","","",""
"","","","","","image-keyboard-response","89","2.0.0","1119049","p0skpjr7w1p","flamingo","null","stimuli/bar_16.jpg","null","bar","I","non-repeat","null","74","stimuli/bar_16.jpg","","","","",""
"","","","","","image-keyboard-response","90","2.0.0","1120056","p0skpjr7w1p","flamingo","null","stimuli/coast_25.jpg","null","coast","J","non-repeat","null","75","stimuli/coast_25.jpg","","","","",""
"","","","","","image-keyboard-response","91","2.0.0","1121060","p0skpjr7w1p","flamingo","452","stimuli/coast_25.jpg"," ","coast","J","repeat"," ","75","","","","","",""
"","","","","","image-keyboard-response","92","2.0.0","1122063","p0skpjr7w1p","flamingo","null","stimuli/woods_33.jpg","null","woods","K","non-repeat","null","76","stimuli/woods_33.jpg","","","","",""
"","","","","","image-keyboard-response","93","2.0.0","1123067","p0skpjr7w1p","flamingo","null","stimuli/kitchen_43.jpg","null","kitchen","L","non-repeat","null","77","stimuli/kitchen_43.jpg","","","","",""
"","","","","","image-keyboard-response","94","2.0.0","1124070","p0skpjr7w1p","flamingo","396","stimuli/kitchen_43.jpg"," ","kitchen","L","repeat"," ","77","","","","","",""
"","","","","","image-keyboard-response","95","2.0.0","1125073","p0skpjr7w1p","flamingo","null","stimuli/field_23.jpg","null","field","D","non-repeat","null","78","stimuli/field_23.jpg","","","","",""
"","","","","","image-keyboard-response","96","2.0.0","1126076","p0skpjr7w1p","flamingo","null","stimuli/bathroom_24.jpg","null","bathroom","E","non-repeat","null","79","stimuli/bathroom_24.jpg","","","","",""
"","","","","","image-keyboard-response","97","2.0.0","1127079","p0skpjr7w1p","flamingo","null","stimuli/bridge_12.jpg","null","bridge","F","non-repeat","null","80","stimuli/bridge_12.jpg","","","","",""
"","","","","","image-keyboard-response","98","2.0.0","1128082","p0skpjr7w1p","flamingo","null","stimuli/gym_4.jpg","null","gym","A","non-repeat","null","81","stimuli/gym_4.jpg","","","","",""
"","","","","","image-keyboard-response","99","2.0.0","1129084","p0skpjr7w1p","flamingo","null","stimuli/playground_16.jpg","null","playground","B","non-repeat","null","82","stimuli/playground_16.jpg","","","","",""
"","","","","","image-keyboard-response","100","2.0.0","1130087","p0skpjr7w1p","flamingo","null","stimuli/street_23.jpg","null","street","C","non-repeat","null","83","stimuli/street_23.jpg","","","","",""
"","","","","","image-keyboard-response","101","2.0.0","1131091","p0skpjr7w1p","flamingo","null","stimuli/coast_25.jpg","null","coast","J","non-repeat","null","84","stimuli/coast_25.jpg","","","","",""
"","","","","","image-keyboard-response","102","2.0.0","1132093","p0skpjr7w1p","flamingo","542","stimuli/coast_25.jpg"," ","coast","J","repeat"," ","84","","","","","",""
"","","","","","image-keyboard-response","103","2.0.0","1133095","p0skpjr7w1p","flamingo","null","stimuli/woods_33.jpg","null","woods","K","non-repeat","null","85","stimuli/woods_33.jpg","","","","",""
"","","","","","image-keyboard-response","104","2.0.0","1134099","p0skpjr7w1p","flamingo","null","stimuli/kitchen_43.jpg","null","kitchen","L","non-repeat","null","86","stimuli/kitchen_43.jpg","","","","",""
"","","","","","image-keyboard-response","105","2.0.0","1135101","p0skpjr7w1p","flamingo","null","stimuli/field_23.jpg","null","field","D","non-repeat","null","87","stimuli/field_23.jpg","","","","",""
"","","","","","image-keyboard-response","106","2.0.0","1136105","p0skpjr7w1p","flamingo","571","stimuli/field_23.jpg"," ","field","D","repeat"," ","87","","","","","",""
"","","","","","image-keyboard-response","107","2.0.0","1137108","p0skpjr7w1p","flamingo","null","stimuli/bathroom_24.jpg","null","bathroom","E","non-repeat","null","88","stimuli/bathroom_24.jpg","","","","",""
"","","","","","image-keyboard-response","108","2.0.0","1138111","p0skpjr7w1p","flamingo","null","stimuli/bridge_12.jpg","null","bridge","F","non-repeat","null","89","stimuli/bridge_12.jpg","","","","",""
"","","","","","image-keyboard-response","109","2.0.0","1139114","p0skpjr7w1p","flamingo","null","stimuli/stream_37.jpg","null","stream","G","non-repeat","null","90","stimuli/stream_37.jpg","","","","",""
"","","","","","image-keyboard-response","110","2.0.0","1140117","p0skpjr7w1p","flamingo","null","stimuli/desert_21.jpg","null","desert","H","non-repeat","null","91","stimuli/desert_21.jpg","","","","",""
"","","","","","image-keyboard-response","111","2.0.0","1141119","p0skpjr7w1p","flamingo","null","stimuli/bar_16.jpg","null","bar","I","non-repeat","null","92","stimuli/bar_16.jpg","","","","",""
"","","","","","image-keyboard-response","112","2.0.0","1142123","p0skpjr7w1p","flamingo","null","stimuli/gym_4.jpg","null","gym","A","non-repeat","null","93","stimuli/gym_4.jpg","","","","",""
"","","","","","image-keyboard-response","113","2.0.0","1143126","p0skpjr7w1p","flamingo","null","stimuli/playground_16.jpg","null","playground","B","non-repeat","null","94","stimuli/playground_16.jpg","","","","",""
"","","","","","image-keyboard-response","114","2.0.0","1144129","p0skpjr7w1p","flamingo","null","stimuli/street_23.jpg","null","street","C","non-repeat","null","95","stimuli/street_23.jpg","","","","",""
"","","","","","image-keyboard-response","115","2.0.0","1145131","p0skpjr7w1p","flamingo","626","stimuli/street_23.jpg"," ","street","C","repeat"," ","95","","","","","",""
"","","","","","image-keyboard-response","116","2.0.0","1146135","p0skpjr7w1p","flamingo","null","stimuli/stream_37.jpg","null","stream","G","non-repeat","null","96","stimuli/stream_37.jpg","","","","",""
"","","","","","image-keyboard-response","117","2.0.0","1147138","p0skpjr7w1p","flamingo","null","stimuli/desert_21.jpg","null","desert","H","non-repeat","null","97","stimuli/desert_21.jpg","","","","",""
"","","","","","image-keyboard-response","118","2.0.0","1148142","p0skpjr7w1p","flamingo","null","stimuli/bar_16.jpg","null","bar","I","non-repeat","null","98","stimuli/bar_16.jpg","","","","",""
"","","","","","image-keyboard-response","119","2.0.0","1149145","p0skpjr7w1p","flamingo","null","stimuli/coast_25.jpg","null","coast","J","non-repeat","null","99","stimuli/coast_25.jpg","","","","",""
"","","","","","image-keyboard-response","120","2.0.0","1150149","p0skpjr7w1p","flamingo","518","stimuli/coast_25.jpg"," ","coast","J","repeat"," ","99","","","","","",""
"","","","","","image-keyboard-response","121","2.0.0","1151152","p0skpjr7w1p","flamingo","null","stimuli/woods_33.jpg","null","woods","K","non-repeat","null","100","stimuli/woods_33.jpg","","","","",""
"","","","","","image-keyboard-response","122","2.0.0","1152155","p0skpjr7w1p","flamingo","null","stimuli/kitchen_43.jpg","null","kitchen","L","non-repeat","null","101","stimuli/kitchen_43.jpg","","","","",""
"","","","","","image-keyboard-response","123","2.0.0","1153159","p0skpjr7w1p","flamingo","null","stimuli/field_23.jpg","null","field","D","non-repeat","null","102","stimuli/field_23.jpg","","","","",""
"","","","","","image-keyboard-response","124","2.0.0","1154162","p0skpjr7w1p","flamingo","null","stimuli/bathroom_24.jpg","null","bathroom","E","non-repeat","null","103","stimuli/bathroom_24.jpg","","","","",""
"","","","","","image-keyboard-response","125","2.0.0","1155165","p0skpjr7w1p","flamingo","null","stimuli/bridge_12.jpg","null","bridge","F","non-repeat","null","104","stimuli/bridge_12.jpg","","","","",""
"","","","","","image-keyboard-response","126","2.0.0","1156168","p0skpjr7w1p","flamingo","null","stimuli/stream_37.jpg","null","stream","G","non-repeat","null","105","stimuli/stream_37.jpg","","","","",""
"","","","","","image-keyboard-response","127","2.0.0","1157171","p0skpjr7w1p","flamingo","null","stimuli/desert_21.jpg","null","desert","H","non-repeat","null","106","stimuli/desert_21.jpg","","","","",""
"","","","","","image-keyboard-response","128","2.0.0","1158172","p0skpjr7w1p","flamingo","null","stimuli/bar_16.jpg","null","bar","I","non-repeat","null","107","stimuli/bar_16.jpg","","","","",""
"","","","","","image-keyboard-response","129","2.0.0","1159176","p0skpjr7w1p","flamingo","null","stimuli/field_23.jpg","null","field","D","non-repeat","null","108","stimuli/field_23.jpg","","","","",""
"","","","","","image-keyboard-response","130","2.0.0","1160179","p0skpjr7w1p","flamingo","null","stimuli/bathroom_24.jpg","null","bathroom","E","non-repeat","null","109","stimuli/bathroom_24.jpg","","","","",""
"","","","","","image-keyboard-response","131","2.0.0","1161181","p0skpjr7w1p","flamingo","null","stimuli/bridge_12.jpg","null","bridge","F","non-repeat","null","110","stimuli/bridge_12.jpg","","","","",""
"","","","","","image-keyboard-response","132","2.0.0","1162185","p0skpjr7w1p","flamingo","null","stimuli/stream_37.jpg","null","stream","G","non-repeat","null","111","stimuli/stream_37.jpg","","","","",""
"","","","","","image-keyboard-response","133","2.0.0","1163188","p0skpjr7w1p","flamingo","492","stimuli/stream_37.jpg"," ","stream","G","repeat"," ","111","","","","","",""
"","","","","","image-keyboard-response","134","2.0.0","1164191","p0skpjr7w1p","flamingo","null","stimuli/desert_21.jpg","null","desert","H","non-repeat","null","112","stimuli/desert_21.jpg","","","","",""
"","","","","","image-keyboard-response","135","2.0.0","1165195","p0skpjr7w1p","flamingo","null","stimuli/bar_16.jpg","null","bar","I","non-repeat","null","113","stimuli/bar_16.jpg","","","","",""
"","","","","","image-keyboard-response","136","2.0.0","1166198","p0skpjr7w1p","flamingo","null","stimuli/gym_4.jpg","null","gym","A","non-repeat","null","114","stimuli/gym_4.jpg","","","","",""
"","","","","","image-keyboard-response","137","2.0.0","1167201","p0skpjr7w1p","flamingo","null","stimuli/playground_16.jpg","null","playground","B","non-repeat","null","115","stimuli/playground_16.jpg","","","","",""
"","","","","","image-keyboard-response","138","2.0.0","1168205","p0skpjr7w1p","flamingo","null","stimuli/street_23.jpg","null","street","C","non-repeat","null","116","stimuli/street_23.jpg","","","","",""
"","","","","","image-keyboard-response","139","2.0.0","1169209","p0skpjr7w1p","flamingo","null","stimuli/stream_37.jpg","null","stream","G","non-repeat","null","117","stimuli/stream_37.jpg","","","","",""
"","","","","","image-keyboard-response","140","2.0.0","1170212","p0skpjr7w1p","flamingo","null","stimuli/desert_21.jpg","null","desert","H","non-repeat","null","118","stimuli/desert_21.jpg","","","","",""
"","","","","","image-keyboard-response","141","2.0.0","1171215","p0skpjr7w1p","flamingo","null","stimuli/bar_16.jpg","null","bar","I","non-repeat","null","119","stimuli/bar_16.jpg","","","","",""
"","","","","","image-keyboard-response","142","2.0.0","1172218","p0skpjr7w1p","flamingo","null","stimuli/field_23.jpg","null","field","D","non-repeat","null","120","stimuli/field_23.jpg","","","","",""
"","","","","","image-keyboard-response","143","2.0.0","1173221","p0skpjr7w1p","flamingo","null","stimuli/bathroom_24.jpg","null","bathroom","E","non-repeat","null","121","stimuli/bathroom_24.jpg","","","","",""
"","","","","","image-keyboard-response","144","2.0.0","1174225","p0skpjr7w1p","flamingo","null","stimuli/bridge_12.jpg","null","bridge","F","non-repeat","null","122","stimuli/bridge_12.jpg","","","","",""
"","","","","","image-keyboard-response","145","2.0.0","1175228","p0skpjr7w1p","flamingo","null","stimuli/stream_37.jpg","null","stream","G","non-repeat","null","123","stimuli/stream_37.jpg","","","","",""
"","","","","","image-keyboard-response","146","2.0.0","1176232","p0skpjr7w1p","flamingo","null","stimuli/desert_21.jpg","null","desert","H","non-repeat","null","124","stimuli/desert_21.jpg","","","","",""
"","","","","","image-keyboard-response","147","2.0.0","1177235","p0skpjr7w1p","flamingo","null","stimuli/bar_16.jpg","null","bar","I","non-repeat","null","125","stimuli/bar_16.jpg","","","","",""
"","","","","","image-keyboard-response","148","2.0.0","1178239","p0skpjr7w1p","flamingo","null","stimuli/coast_25.jpg","null","coast","J","non-repeat","null","126","stimuli/coast_25.jpg","","","","",""
"","","","","","image-keyboard-response","149","2.0.0","1179242","p0skpjr7w1p","flamingo","null","stimuli/woods_33.jpg","null","woods","K","non-repeat","null","127","stimuli/woods_33.jpg","","","","",""
"","","","","","image-keyboard-response","150","2.0.0","1180245","p0skpjr7w1p","flamingo","null","stimuli/kitchen_43.jpg","null","kitchen","L","non-repeat","null","128","stimuli/kitchen_43.jpg","","","","",""
"","","","","","image-keyboard-response","151","2.0.0","1181248","p0skpjr7w1p","flamingo","null","stimuli/gym_4.jpg","null","gym","A","non-repeat","null","129","stimuli/gym_4.jpg","","","","",""
"","","","","","image-keyboard-response","152","2.0.0","1182252","p0skpjr7w1p","flamingo","456","stimuli/gym_4.jpg"," ","gym","A","repeat"," ","129","","","","","",""
"","","","","","image-keyboard-response","153","2.0.0","1183255","p0skpjr7w1p","flamingo","null","stimuli/playground_16.jpg","null","playground","B","non-repeat","null","130","stimuli/playground_16.jpg","","","","",""
"","","","","","image-keyboard-response","154","2.0.0","1184259","p0skpjr7w1p","flamingo","null","stimuli/street_23.jpg","null","street","C","non-repeat","null","131","stimuli/street_23.jpg","","","","",""
"","","","","","image-keyboard-response","155","2.0.0","1185262","p0skpjr7w1p","flamingo","null","stimuli/stream_37.jpg","null","stream","G","non-repeat","null","132","stimuli/stream_37.jpg","","","","",""
"","","","","","image-keyboard-response","156","2.0.0","1186266","p0skpjr7w1p","flamingo","709","stimuli/stream_37.jpg"," ","stream","G","repeat"," ","132","","","","","",""
"","","","","","image-keyboard-response","157","2.0.0","1187268","p0skpjr7w1p","flamingo","null","stimuli/desert_21.jpg","null","desert","H","non-repeat","null","133","stimuli/desert_21.jpg","","","","",""
"","","","","","image-keyboard-response","158","2.0.0","1188271","p0skpjr7w1p","flamingo","null","stimuli/bar_16.jpg","null","bar","I","non-repeat","null","134","stimuli/bar_16.jpg","","","","",""
"","","","","","image-keyboard-response","159","2.0.0","1189274","p0skpjr7w1p","flamingo","null","stimuli/field_23.jpg","null","field","D","non-repeat","null","135","stimuli/field_23.jpg","","","","",""
"","","","","","image-keyboard-response","160","2.0.0","1190277","p0skpjr7w1p","flamingo","636","stimuli/field_23.jpg"," ","field","D","repeat"," ","135","","","","","",""
"","","","","","image-keyboard-response","161","2.0.0","1191281","p0skpjr7w1p","flamingo","null","stimuli/bathroom_24.jpg","null","bathroom","E","non-repeat","null","136","stimuli/bathroom_24.jpg","","","","",""
"","","","","","image-keyboard-response","162","2.0.0","1192284","p0skpjr7w1p","flamingo","null","stimuli/bridge_12.jpg","null","bridge","F","non-repeat","null","137","stimuli/bridge_12.jpg","","","","",""
"","","","","","image-keyboard-response","163","2.0.0","1193287","p0skpjr7w1p","flamingo","null","stimuli/gym_4.jpg","null","gym","A","non-repeat","null","138","stimuli/gym_4.jpg","","","","",""
"","","","","","image-keyboard-response","164","2.0.0","1194291","p0skpjr7w1p","flamingo","null","stimuli/playground_16.jpg","null","playground","B","non-repeat","null","139","stimuli/playground_16.jpg","","","","",""
"","","","","","image-keyboard-response","165","2.0.0","1195294","p0skpjr7w1p","flamingo","null","stimuli/street_23.jpg","null","street","C","non-repeat","null","140","stimuli/street_23.jpg","","","","",""
"","","","","","image-keyboard-response","166","2.0.0","1196296","p0skpjr7w1p","flamingo","null","stimuli/coast_25.jpg","null","coast","J","non-repeat","null","141","stimuli/coast_25.jpg","","","","",""
"","","","","","image-keyboard-response","167","2.0.0","1197300","p0skpjr7w1p","flamingo","null","stimuli/woods_33.jpg","null","woods","K","non-repeat","null","142","stimuli/woods_33.jpg","","","","",""
"","","","","","image-keyboard-response","168","2.0.0","1198303","p0skpjr7w1p","flamingo","null","stimuli/kitchen_43.jpg","null","kitchen","L","non-repeat","null","143","stimuli/kitchen_43.jpg","","","","",""
"","","","","","image-keyboard-response","169","2.0.0","1199307","p0skpjr7w1p","flamingo","447","stimuli/kitchen_43.jpg"," ","kitchen","L","repeat"," ","143","","","","","",""
"","","","","","image-keyboard-response","170","2.0.0","1200310","p0skpjr7w1p","flamingo","null","stimuli/stream_37.jpg","null","stream","G","non-repeat","null","144","stimuli/stream_37.jpg","","","","",""
"","","","","","image-keyboard-response","171","2.0.0","1201312","p0skpjr7w1p","flamingo","498","stimuli/stream_37.jpg"," ","stream","G","repeat"," ","144","","","","","",""
"","","","","","image-keyboard-response","172","2.0.0","1202316","p0skpjr7w1p","flamingo","null","stimuli/desert_21.jpg","null","desert","H","non-repeat","null","145","stimuli/desert_21.jpg","","","","",""
"","","","","","image-keyboard-response","173","2.0.0","1203319","p0skpjr7w1p","flamingo","null","stimuli/bar_16.jpg","null","bar","I","non-repeat","null","146","stimuli/bar_16.jpg","","","","",""
"","","","","","image-keyboard-response","174","2.0.0","1204322","p0skpjr7w1p","flamingo","null","stimuli/coast_25.jpg","null","coast","J","non-repeat","null","147","stimuli/coast_25.jpg","","","","",""
"","","","","","image-keyboard-response","175","2.0.0","1205326","p0skpjr7w1p","flamingo","null","stimuli/woods_33.jpg","null","woods","K","non-repeat","null","148","stimuli/woods_33.jpg","","","","",""
"","","","","","image-keyboard-response","176","2.0.0","1206334","p0skpjr7w1p","flamingo","null","stimuli/kitchen_43.jpg","null","kitchen","L","non-repeat","null","149","stimuli/kitchen_43.jpg","","","","",""
"","","","","","image-keyboard-response","177","2.0.0","1207337","p0skpjr7w1p","flamingo","499","stimuli/kitchen_43.jpg"," ","kitchen","L","repeat"," ","149","","","","","",""
"","","","","","image-keyboard-response","178","2.0.0","1208340","p0skpjr7w1p","flamingo","null","stimuli/field_23.jpg","null","field","D","non-repeat","null","150","stimuli/field_23.jpg","","","","",""
"","","","","","image-keyboard-response","179","2.0.0","1209344","p0skpjr7w1p","flamingo","null","stimuli/bathroom_24.jpg","null","bathroom","E","non-repeat","null","151","stimuli/bathroom_24.jpg","","","","",""
"","","","","","image-keyboard-response","180","2.0.0","1210347","p0skpjr7w1p","flamingo","null","stimuli/bridge_12.jpg","null","bridge","F","non-repeat","null","152","stimuli/bridge_12.jpg","","","","",""
"","","","","","image-keyboard-response","181","2.0.0","1211350","p0skpjr7w1p","flamingo","null","stimuli/coast_25.jpg","null","coast","J","non-repeat","null","153","stimuli/coast_25.jpg","","","","",""
"","","","","","image-keyboard-response","182","2.0.0","1212354","p0skpjr7w1p","flamingo","null","stimuli/woods_33.jpg","null","woods","K","non-repeat","null","154","stimuli/woods_33.jpg","","","","",""
"","","","","","image-keyboard-response","183","2.0.0","1213358","p0skpjr7w1p","flamingo","null","stimuli/kitchen_43.jpg","null","kitchen","L","non-repeat","null","155","stimuli/kitchen_43.jpg","","","","",""
"","","","","","image-keyboard-response","184","2.0.0","1214362","p0skpjr7w1p","flamingo","600","stimuli/kitchen_43.jpg"," ","kitchen","L","repeat"," ","155","","","","","",""
"","","","","","image-keyboard-response","185","2.0.0","1215365","p0skpjr7w1p","flamingo","null","stimuli/field_23.jpg","null","field","D","non-repeat","null","156","stimuli/field_23.jpg","","","","",""
"","","","","","image-keyboard-response","186","2.0.0","1216369","p0skpjr7w1p","flamingo","816","stimuli/field_23.jpg"," ","field","D","repeat"," ","156","","","","","",""
"","","","","","image-keyboard-response","187","2.0.0","1217372","p0skpjr7w1p","flamingo","null","stimuli/bathroom_24.jpg","null","bathroom","E","non-repeat","null","157","stimuli/bathroom_24.jpg","","","","",""
"","","","","","image-keyboard-response","188","2.0.0","1218376","p0skpjr7w1p","flamingo","null","stimuli/bridge_12.jpg","null","bridge","F","non-repeat","null","158","stimuli/bridge_12.jpg","","","","",""
"","","","","","image-keyboard-response","189","2.0.0","1219379","p0skpjr7w1p","flamingo","null","stimuli/stream_37.jpg","null","stream","G","non-repeat","null","159","stimuli/stream_37.jpg","","","","",""
"","","","","","image-keyboard-response","190","2.0.0","1220382","p0skpjr7w1p","flamingo","487","stimuli/stream_37.jpg"," ","stream","G","repeat"," ","159","","","","","",""
"","","","","","image-keyboard-response","191","2.0.0","1221386","p0skpjr7w1p","flamingo","null","stimuli/desert_21.jpg","null","desert","H","non-repeat","null","160","stimuli/desert_21.jpg","","","","",""
"","","","","","image-keyboard-response","192","2.0.0","1222389","p0skpjr7w1p","flamingo","null","stimuli/bar_16.jpg","null","bar","I","non-repeat","null","161","stimuli/bar_16.jpg","","","","",""
"","","","","","image-keyboard-response","193","2.0.0","1223393","p0skpjr7w1p","flamingo","null","stimuli/coast_25.jpg","null","coast","J","non-repeat","null","162","stimuli/coast_25.jpg","","","","",""
"","","","","","image-keyboard-response","194","2.0.0","1224396","p0skpjr7w1p","flamingo","null","stimuli/woods_33.jpg","null","woods","K","non-repeat","null","163","stimuli/woods_33.jpg","","","","",""
"","","","","","image-keyboard-response","195","2.0.0","1225399","p0skpjr7w1p","flamingo","null","stimuli/kitchen_43.jpg","null","kitchen","L","non-repeat","null","164","stimuli/kitchen_43.jpg","","","","",""
"","","","","","image-keyboard-response","196","2.0.0","1226403","p0skpjr7w1p","flamingo","null","stimuli/stream_37.jpg","null","stream","G","non-repeat","null","165","stimuli/stream_37.jpg","","","","",""
"","","","","","image-keyboard-response","197","2.0.0","1227406","p0skpjr7w1p","flamingo","null","stimuli/desert_21.jpg","null","desert","H","non-repeat","null","166","stimuli/desert_21.jpg","","","","",""
"","","","","","image-keyboard-response","198","2.0.0","1228409","p0skpjr7w1p","flamingo","null","stimuli/bar_16.jpg","null","bar","I","non-repeat","null","167","stimuli/bar_16.jpg","","","","",""
"","","","","","image-keyboard-response","199","2.0.0","1229412","p0skpjr7w1p","flamingo","512","stimuli/bar_16.jpg"," ","bar","I","repeat"," ","167","","","","","",""
"","","","","","image-keyboard-response","200","2.0.0","1230415","p0skpjr7w1p","flamingo","null","stimuli/gym_4.jpg","null","gym","A","non-repeat","null","168","stimuli/gym_4.jpg","","","","",""
"","","","","","image-keyboard-response","201","2.0.0","1231418","p0skpjr7w1p","flamingo","null","stimuli/playground_16.jpg","null","playground","B","non-repeat","null","169","stimuli/playground_16.jpg","","","","",""
"","","","","","image-keyboard-response","202","2.0.0","1232421","p0skpjr7w1p","flamingo","null","stimuli/street_23.jpg","null","street","C","non-repeat","null","170","stimuli/street_23.jpg","","","","",""
"","","","","","image-keyboard-response","203","2.0.0","1233424","p0skpjr7w1p","flamingo","null","stimuli/stream_37.jpg","null","stream","G","non-repeat","null","171","stimuli/stream_37.jpg","","","","",""
"","","","","","image-keyboard-response","204","2.0.0","1234428","p0skpjr7w1p","flamingo","null","stimuli/desert_21.jpg","null","desert","H","non-repeat","null","172","stimuli/desert_21.jpg","","","","",""
"","","","","","image-keyboard-response","205","2.0.0","1235431","p0skpjr7w1p","flamingo","null","stimuli/bar_16.jpg","null","bar","I","non-repeat","null","173","stimuli/bar_16.jpg","","","","",""
"","","","","","image-keyboard-response","206","2.0.0","1236435","p0skpjr7w1p","flamingo","443","stimuli/bar_16.jpg"," ","bar","I","repeat"," ","173","","","","","",""
"","","","","","image-keyboard-response","207","2.0.0","1237438","p0skpjr7w1p","flamingo","null","stimuli/gym_4.jpg","null","gym","A","non-repeat","null","174","stimuli/gym_4.jpg","","","","",""
"","","","","","image-keyboard-response","208","2.0.0","1238441","p0skpjr7w1p","flamingo","null","stimuli/playground_16.jpg","null","playground","B","non-repeat","null","175","stimuli/playground_16.jpg","","","","",""
"","","","","","image-keyboard-response","209","2.0.0","1239444","p0skpjr7w1p","flamingo","null","stimuli/street_23.jpg","null","street","C","non-repeat","null","176","stimuli/street_23.jpg","","","","",""
"","","","","","image-keyboard-response","210","2.0.0","1240448","p0skpjr7w1p","flamingo","null","stimuli/field_23.jpg","null","field","D","non-repeat","null","177","stimuli/field_23.jpg","","","","",""
"","","","","","image-keyboard-response","211","2.0.0","1241451","p0skpjr7w1p","flamingo","null","stimuli/bathroom_24.jpg","null","bathroom","E","non-repeat","null","178","stimuli/bathroom_24.jpg","","","","",""
"","","","","","image-keyboard-response","212","2.0.0","1242454","p0skpjr7w1p","flamingo","null","stimuli/bridge_12.jpg","null","bridge","F","non-repeat","null","179","stimuli/bridge_12.jpg","","","","",""
"","","","","","image-keyboard-response","213","2.0.0","1243457","p0skpjr7w1p","flamingo","null","stimuli/stream_37.jpg","null","stream","G","non-repeat","null","180","stimuli/stream_37.jpg","","","","",""
"","","","","","image-keyboard-response","214","2.0.0","1244461","p0skpjr7w1p","flamingo","null","stimuli/desert_21.jpg","null","desert","H","non-repeat","null","181","stimuli/desert_21.jpg","","","","",""
"","","","","","image-keyboard-response","215","2.0.0","1245464","p0skpjr7w1p","flamingo","null","stimuli/bar_16.jpg","null","bar","I","non-repeat","null","182","stimuli/bar_16.jpg","","","","",""
"","","","","","image-keyboard-response","216","2.0.0","1246468","p0skpjr7w1p","flamingo","null","stimuli/gym_4.jpg","null","gym","A","non-repeat","null","183","stimuli/gym_4.jpg","","","","",""
"","","","","","image-keyboard-response","217","2.0.0","1247472","p0skpjr7w1p","flamingo","null","stimuli/playground_16.jpg","null","playground","B","non-repeat","null","184","stimuli/playground_16.jpg","","","","",""
"","","","","","image-keyboard-response","218","2.0.0","1248474","p0skpjr7w1p","flamingo","null","stimuli/street_23.jpg","null","street","C","non-repeat","null","185","stimuli/street_23.jpg","","","","",""
"","","","","","image-keyboard-response","219","2.0.0","1249478","p0skpjr7w1p","flamingo","null","stimuli/field_23.jpg","null","field","D","non-repeat","null","186","stimuli/field_23.jpg","","","","",""
"","","","","","image-keyboard-response","220","2.0.0","1250481","p0skpjr7w1p","flamingo","null","stimuli/bathroom_24.jpg","null","bathroom","E","non-repeat","null","187","stimuli/bathroom_24.jpg","","","","",""
"","","","","","image-keyboard-response","221","2.0.0","1251485","p0skpjr7w1p","flamingo","null","stimuli/bridge_12.jpg","null","bridge","F","non-repeat","null","188","stimuli/bridge_12.jpg","","","","",""
"","","","","","image-keyboard-response","222","2.0.0","1252488","p0skpjr7w1p","flamingo","null","stimuli/coast_25.jpg","null","coast","J","non-repeat","null","189","stimuli/coast_25.jpg","","","","",""
"","","","","","image-keyboard-response","223","2.0.0","1253492","p0skpjr7w1p","flamingo","null","stimuli/woods_33.jpg","null","woods","K","non-repeat","null","190","stimuli/woods_33.jpg","","","","",""
"","","","","","image-keyboard-response","224","2.0.0","1254496","p0skpjr7w1p","flamingo","null","stimuli/kitchen_43.jpg","null","kitchen","L","non-repeat","null","191","stimuli/kitchen_43.jpg","","","","",""
"","","","","","image-keyboard-response","225","2.0.0","1255499","p0skpjr7w1p","flamingo","null","stimuli/stream_37.jpg","null","stream","G","non-repeat","null","192","stimuli/stream_37.jpg","","","","",""
"","","","","","image-keyboard-response","226","2.0.0","1256502","p0skpjr7w1p","flamingo","null","stimuli/desert_21.jpg","null","desert","H","non-repeat","null","193","stimuli/desert_21.jpg","","","","",""
"","","","","","image-keyboard-response","227","2.0.0","1257506","p0skpjr7w1p","flamingo","null","stimuli/bar_16.jpg","null","bar","I","non-repeat","null","194","stimuli/bar_16.jpg","","","","",""
"","","","","","image-keyboard-response","228","2.0.0","1258509","p0skpjr7w1p","flamingo","null","stimuli/coast_25.jpg","null","coast","J","non-repeat","null","195","stimuli/coast_25.jpg","","","","",""
"","","","","","image-keyboard-response","229","2.0.0","1259512","p0skpjr7w1p","flamingo","null","stimuli/woods_33.jpg","null","woods","K","non-repeat","null","196","stimuli/woods_33.jpg","","","","",""
"","","","","","image-keyboard-response","230","2.0.0","1260515","p0skpjr7w1p","flamingo","null","stimuli/kitchen_43.jpg","null","kitchen","L","non-repeat","null","197","stimuli/kitchen_43.jpg","","","","",""
"","","","","","image-keyboard-response","231","2.0.0","1261518","p0skpjr7w1p","flamingo","null","stimuli/gym_4.jpg","null","gym","A","non-repeat","null","198","stimuli/gym_4.jpg","","","","",""
"","","","","","image-keyboard-response","232","2.0.0","1262521","p0skpjr7w1p","flamingo","408","stimuli/gym_4.jpg"," ","gym","A","repeat"," ","198","","","","","",""
"","","","","","image-keyboard-response","233","2.0.0","1263524","p0skpjr7w1p","flamingo","null","stimuli/playground_16.jpg","null","playground","B","non-repeat","null","199","stimuli/playground_16.jpg","","","","",""
"","","","","","image-keyboard-response","234","2.0.0","1264528","p0skpjr7w1p","flamingo","null","stimuli/street_23.jpg","null","street","C","non-repeat","null","200","stimuli/street_23.jpg","","","","",""
"","","","","","image-keyboard-response","235","2.0.0","1265531","p0skpjr7w1p","flamingo","null","stimuli/field_23.jpg","null","field","D","non-repeat","null","201","stimuli/field_23.jpg","","","","",""
"","","","","","image-keyboard-response","236","2.0.0","1266534","p0skpjr7w1p","flamingo","null","stimuli/bathroom_24.jpg","null","bathroom","E","non-repeat","null","202","stimuli/bathroom_24.jpg","","","","",""
"","","","","","image-keyboard-response","237","2.0.0","1267537","p0skpjr7w1p","flamingo","null","stimuli/bridge_12.jpg","null","bridge","F","non-repeat","null","203","stimuli/bridge_12.jpg","","","","",""
"","","","","","image-keyboard-response","238","2.0.0","1268540","p0skpjr7w1p","flamingo","null","stimuli/coast_25.jpg","null","coast","J","non-repeat","null","204","stimuli/coast_25.jpg","","","","",""
"","","","","","image-keyboard-response","239","2.0.0","1269544","p0skpjr7w1p","flamingo","null","stimuli/woods_33.jpg","null","woods","K","non-repeat","null","205","stimuli/woods_33.jpg","","","","",""
"","","","","","image-keyboard-response","240","2.0.0","1270547","p0skpjr7w1p","flamingo","null","stimuli/kitchen_43.jpg","null","kitchen","L","non-repeat","null","206","stimuli/kitchen_43.jpg","","","","",""
"","","","","","image-keyboard-response","241","2.0.0","1271550","p0skpjr7w1p","flamingo","null","stimuli/stream_37.jpg","null","stream","G","non-repeat","null","207","stimuli/stream_37.jpg","","","","",""
"","","","","","image-keyboard-response","242","2.0.0","1272553","p0skpjr7w1p","flamingo","null","stimuli/desert_21.jpg","null","desert","H","non-repeat","null","208","stimuli/desert_21.jpg","","","","",""
"","","","","","image-keyboard-response","243","2.0.0","1273556","p0skpjr7w1p","flamingo","null","stimuli/bar_16.jpg","null","bar","I","non-repeat","null","209","stimuli/bar_16.jpg","","","","",""
"","","","","","image-keyboard-response","244","2.0.0","1274560","p0skpjr7w1p","flamingo","null","stimuli/gym_4.jpg","null","gym","A","non-repeat","null","210","stimuli/gym_4.jpg","","","","",""
"","","","","","image-keyboard-response","245","2.0.0","1275564","p0skpjr7w1p","flamingo","null","stimuli/playground_16.jpg","null","playground","B","non-repeat","null","211","stimuli/playground_16.jpg","","","","",""
"","","","","","image-keyboard-response","246","2.0.0","1276567","p0skpjr7w1p","flamingo","null","stimuli/street_23.jpg","null","street","C","non-repeat","null","212","stimuli/street_23.jpg","","","","",""
"","","","","","image-keyboard-response","247","2.0.0","1277570","p0skpjr7w1p","flamingo","840","stimuli/street_23.jpg"," ","street","C","repeat"," ","212","","","","","",""
"","","","","","image-keyboard-response","248","2.0.0","1278573","p0skpjr7w1p","flamingo","null","stimuli/coast_25.jpg","null","coast","J","non-repeat","null","213","stimuli/coast_25.jpg","","","","",""
"","","","","","image-keyboard-response","249","2.0.0","1279576","p0skpjr7w1p","flamingo","null","stimuli/woods_33.jpg","null","woods","K","non-repeat","null","214","stimuli/woods_33.jpg","","","","",""
"","","","","","image-keyboard-response","250","2.0.0","1280580","p0skpjr7w1p","flamingo","null","stimuli/kitchen_43.jpg","null","kitchen","L","non-repeat","null","215","stimuli/kitchen_43.jpg","","","","",""
"","","","","","image-keyboard-response","251","2.0.0","1281583","p0skpjr7w1p","flamingo","null","stimuli/field_23.jpg","null","field","D","non-repeat","null","216","stimuli/field_23.jpg","","","","",""
"","","","","","image-keyboard-response","252","2.0.0","1282587","p0skpjr7w1p","flamingo","null","stimuli/bathroom_24.jpg","null","bathroom","E","non-repeat","null","217","stimuli/bathroom_24.jpg","","","","",""
"","","","","","image-keyboard-response","253","2.0.0","1283590","p0skpjr7w1p","flamingo","null","stimuli/bridge_12.jpg","null","bridge","F","non-repeat","null","218","stimuli/bridge_12.jpg","","","","",""
"","","","","","image-keyboard-response","254","2.0.0","1284591","p0skpjr7w1p","flamingo","null","stimuli/coast_25.jpg","null","coast","J","non-repeat","null","219","stimuli/coast_25.jpg","","","","",""
"","","","","","image-keyboard-response","255","2.0.0","1285594","p0skpjr7w1p","flamingo","null","stimuli/woods_33.jpg","null","woods","K","non-repeat","null","220","stimuli/woods_33.jpg","","","","",""
"","","","","","image-keyboard-response","256","2.0.0","1286598","p0skpjr7w1p","flamingo","null","stimuli/kitchen_43.jpg","null","kitchen","L","non-repeat","null","221","stimuli/kitchen_43.jpg","","","","",""
"","","","","","image-keyboard-response","257","2.0.0","1287601","p0skpjr7w1p","flamingo","null","stimuli/stream_37.jpg","null","stream","G","non-repeat","null","222","stimuli/stream_37.jpg","","","","",""
"","","","","","image-keyboard-response","258","2.0.0","1288605","p0skpjr7w1p","flamingo","null","stimuli/desert_21.jpg","null","desert","H","non-repeat","null","223","stimuli/desert_21.jpg","","","","",""
"","","","","","image-keyboard-response","259","2.0.0","1289608","p0skpjr7w1p","flamingo","null","stimuli/bar_16.jpg","null","bar","I","non-repeat","null","224","stimuli/bar_16.jpg","","","","",""
"","","","","","image-keyboard-response","260","2.0.0","1290612","p0skpjr7w1p","flamingo","null","stimuli/gym_4.jpg","null","gym","A","non-repeat","null","225","stimuli/gym_4.jpg","","","","",""
"","","","","","image-keyboard-response","261","2.0.0","1291615","p0skpjr7w1p","flamingo","null","stimuli/playground_16.jpg","null","playground","B","non-repeat","null","226","stimuli/playground_16.jpg","","","","",""
"","","","","","image-keyboard-response","262","2.0.0","1292623","p0skpjr7w1p","flamingo","null","stimuli/street_23.jpg","null","street","C","non-repeat","null","227","stimuli/street_23.jpg","","","","",""
"","","","","","image-keyboard-response","263","2.0.0","1293625","p0skpjr7w1p","flamingo","null","stimuli/stream_37.jpg","null","stream","G","non-repeat","null","228","stimuli/stream_37.jpg","","","","",""
"","","","","","image-keyboard-response","264","2.0.0","1294629","p0skpjr7w1p","flamingo","null","stimuli/desert_21.jpg","null","desert","H","non-repeat","null","229","stimuli/desert_21.jpg","","","","",""
"","","","","","image-keyboard-response","265","2.0.0","1295633","p0skpjr7w1p","flamingo","null","stimuli/bar_16.jpg","null","bar","I","non-repeat","null","230","stimuli/bar_16.jpg","","","","",""
"","","","","","image-keyboard-response","266","2.0.0","1296636","p0skpjr7w1p","flamingo","null","stimuli/field_23.jpg","null","field","D","non-repeat","null","231","stimuli/field_23.jpg","","","","",""
"","","","","","image-keyboard-response","267","2.0.0","1297640","p0skpjr7w1p","flamingo","768","stimuli/field_23.jpg"," ","field","D","repeat"," ","231","","","","","",""
"","","","","","image-keyboard-response","268","2.0.0","1298643","p0skpjr7w1p","flamingo","null","stimuli/bathroom_24.jpg","null","bathroom","E","non-repeat","null","232","stimuli/bathroom_24.jpg","","","","",""
"","","","","","image-keyboard-response","269","2.0.0","1299647","p0skpjr7w1p","flamingo","null","stimuli/bridge_12.jpg","null","bridge","F","non-repeat","null","233","stimuli/bridge_12.jpg","","","","",""
"","","","","","image-keyboard-response","270","2.0.0","1300650","p0skpjr7w1p","flamingo","null","stimuli/coast_25.jpg","null","coast","J","non-repeat","null","234","stimuli/coast_25.jpg","","","","",""
"","","","","","image-keyboard-response","271","2.0.0","1301654","p0skpjr7w1p","flamingo","null","stimuli/woods_33.jpg","null","woods","K","non-repeat","null","235","stimuli/woods_33.jpg","","","","",""
"","","","","","image-keyboard-response","272","2.0.0","1302657","p0skpjr7w1p","flamingo","null","stimuli/kitchen_43.jpg","null","kitchen","L","non-repeat","null","236","stimuli/kitchen_43.jpg","","","","",""
"","","","","","image-keyboard-response","273","2.0.0","1303661","p0skpjr7w1p","flamingo","null","stimuli/gym_4.jpg","null","gym","A","non-repeat","null","237","stimuli/gym_4.jpg","","","","",""
"","","","","","image-keyboard-response","274","2.0.0","1304664","p0skpjr7w1p","flamingo","null","stimuli/playground_16.jpg","null","playground","B","non-repeat","null","238","stimuli/playground_16.jpg","","","","",""
"","","","","","image-keyboard-response","275","2.0.0","1305667","p0skpjr7w1p","flamingo","null","stimuli/street_23.jpg","null","street","C","non-repeat","null","239","stimuli/street_23.jpg","","","","",""
"","","","","","image-keyboard-response","276","2.0.0","1306670","p0skpjr7w1p","flamingo","null","stimuli/coast_25.jpg","null","coast","J","non-repeat","null","240","stimuli/coast_25.jpg","","","","",""
"","","","","","image-keyboard-response","277","2.0.0","1307673","p0skpjr7w1p","flamingo","null","stimuli/woods_33.jpg","null","woods","K","non-repeat","null","241","stimuli/woods_33.jpg","","","","",""
"","","","","","image-keyboard-response","278","2.0.0","1308676","p0skpjr7w1p","flamingo","null","stimuli/kitchen_43.jpg","null","kitchen","L","non-repeat","null","242","stimuli/kitchen_43.jpg","","","","",""
"","","","","","image-keyboard-response","279","2.0.0","1309680","p0skpjr7w1p","flamingo","null","stimuli/gym_4.jpg","null","gym","A","non-repeat","null","243","stimuli/gym_4.jpg","","","","",""
"","","","","","image-keyboard-response","280","2.0.0","1310683","p0skpjr7w1p","flamingo","null","stimuli/playground_16.jpg","null","playground","B","non-repeat","null","244","stimuli/playground_16.jpg","","","","",""
"","","","","","image-keyboard-response","281","2.0.0","1311687","p0skpjr7w1p","flamingo","null","stimuli/street_23.jpg","null","street","C","non-repeat","null","245","stimuli/street_23.jpg","","","","",""
"","","","","","image-keyboard-response","282","2.0.0","1312690","p0skpjr7w1p","flamingo","null","stimuli/coast_25.jpg","null","coast","J","non-repeat","null","246","stimuli/coast_25.jpg","","","","",""
"","","","","","image-keyboard-response","283","2.0.0","1313693","p0skpjr7w1p","flamingo","null","stimuli/woods_33.jpg","null","woods","K","non-repeat","null","247","stimuli/woods_33.jpg","","","","",""
"","","","","","image-keyboard-response","284","2.0.0","1314697","p0skpjr7w1p","flamingo","null","stimuli/kitchen_43.jpg","null","kitchen","L","non-repeat","null","248","stimuli/kitchen_43.jpg","","","","",""
"","","","","","image-keyboard-response","285","2.0.0","1315700","p0skpjr7w1p","flamingo","null","stimuli/gym_4.jpg","null","gym","A","non-repeat","null","249","stimuli/gym_4.jpg","","","","",""
"","","","","","image-keyboard-response","286","2.0.0","1316703","p0skpjr7w1p","flamingo","null","stimuli/playground_16.jpg","null","playground","B","non-repeat","null","250","stimuli/playground_16.jpg","","","","",""
"","","","","","image-keyboard-response","287","2.0.0","1317706","p0skpjr7w1p","flamingo","null","stimuli/street_23.jpg","null","street","C","non-repeat","null","251","stimuli/street_23.jpg","","","","",""
"","","","","","image-keyboard-response","288","2.0.0","1318709","p0skpjr7w1p","flamingo","578","stimuli/street_23.jpg"," ","street","C","repeat"," ","251","","","","","",""
"","","","","","image-keyboard-response","289","2.0.0","1319713","p0skpjr7w1p","flamingo","null","stimuli/coast_25.jpg","null","coast","J","non-repeat","null","252","stimuli/coast_25.jpg","","","","",""
"","","","","","image-keyboard-response","290","2.0.0","1320716","p0skpjr7w1p","flamingo","null","stimuli/woods_33.jpg","null","woods","K","non-repeat","null","253","stimuli/woods_33.jpg","","","","",""
"","","","","","image-keyboard-response","291","2.0.0","1321719","p0skpjr7w1p","flamingo","null","stimuli/kitchen_43.jpg","null","kitchen","L","non-repeat","null","254","stimuli/kitchen_43.jpg","","","","",""
"","","","","","image-keyboard-response","292","2.0.0","1322721","p0skpjr7w1p","flamingo","650","stimuli/kitchen_43.jpg"," ","kitchen","L","repeat"," ","254","","","","","",""
"","","","","","image-keyboard-response","293","2.0.0","1323724","p0skpjr7w1p","flamingo","null","stimuli/gym_4.jpg","null","gym","A","non-repeat","null","255","stimuli/gym_4.jpg","","","","",""
"","","","","","image-keyboard-response","294","2.0.0","1324727","p0skpjr7w1p","flamingo","null","stimuli/playground_16.jpg","null","playground","B","non-repeat","null","256","stimuli/playground_16.jpg","","","","",""
"","","","","","image-keyboard-response","295","2.0.0","1325731","p0skpjr7w1p","flamingo","null","stimuli/street_23.jpg","null","street","C","non-repeat","null","257","stimuli/street_23.jpg","","","","",""
"","","","","","image-keyboard-response","296","2.0.0","1326733","p0skpjr7w1p","flamingo","null","stimuli/street_23.jpg","null","street","C","repeat"," ","257","","","","","",""
"","","","","","image-keyboard-response","297","2.0.0","1327737","p0skpjr7w1p","flamingo","null","stimuli/coast_25.jpg","null","coast","J","non-repeat","null","258","stimuli/coast_25.jpg","","","","",""
"","","","","","image-keyboard-response","298","2.0.0","1328741","p0skpjr7w1p","flamingo","null","stimuli/woods_33.jpg","null","woods","K","non-repeat","null","259","stimuli/woods_33.jpg","","","","",""
"","","","","","image-keyboard-response","299","2.0.0","1329744","p0skpjr7w1p","flamingo","null","stimuli/kitchen_43.jpg","null","kitchen","L","non-repeat","null","260","stimuli/kitchen_43.jpg","","","","",""
"","","","","","image-keyboard-response","300","2.0.0","1330747","p0skpjr7w1p","flamingo","null","stimuli/stream_37.jpg","null","stream","G","non-repeat","null","261","stimuli/stream_37.jpg","","","","",""
"","","","","","image-keyboard-response","301","2.0.0","1331750","p0skpjr7w1p","flamingo","742","stimuli/stream_37.jpg"," ","stream","G","repeat"," ","261","","","","","",""
"","","","","","image-keyboard-response","302","2.0.0","1332753","p0skpjr7w1p","flamingo","null","stimuli/desert_21.jpg","null","desert","H","non-repeat","null","262","stimuli/desert_21.jpg","","","","",""
"","","","","","image-keyboard-response","303","2.0.0","1333756","p0skpjr7w1p","flamingo","null","stimuli/bar_16.jpg","null","bar","I","non-repeat","null","263","stimuli/bar_16.jpg","","","","",""
"","","","","","image-keyboard-response","304","2.0.0","1334760","p0skpjr7w1p","flamingo","727","stimuli/coast_25.jpg"," ","coast","J","non-repeat","null","264","stimuli/coast_25.jpg","","","","",""
"","","","","","image-keyboard-response","305","2.0.0","1335763","p0skpjr7w1p","flamingo","null","stimuli/woods_33.jpg","null","woods","K","non-repeat","null","265","stimuli/woods_33.jpg","","","","",""
"","","","","","image-keyboard-response","306","2.0.0","1336767","p0skpjr7w1p","flamingo","null","stimuli/kitchen_43.jpg","null","kitchen","L","non-repeat","null","266","stimuli/kitchen_43.jpg","","","","",""
"","","","","","image-keyboard-response","307","2.0.0","1337770","p0skpjr7w1p","flamingo","null","stimuli/gym_4.jpg","null","gym","A","non-repeat","null","267","stimuli/gym_4.jpg","","","","",""
"","","","","","image-keyboard-response","308","2.0.0","1338773","p0skpjr7w1p","flamingo","null","stimuli/playground_16.jpg","null","playground","B","non-repeat","null","268","stimuli/playground_16.jpg","","","","",""
"","","","","","image-keyboard-response","309","2.0.0","1339776","p0skpjr7w1p","flamingo","null","stimuli/street_23.jpg","null","street","C","non-repeat","null","269","stimuli/street_23.jpg","","","","",""
"","","","","","image-keyboard-response","310","2.0.0","1340779","p0skpjr7w1p","flamingo","null","stimuli/stream_37.jpg","null","stream","G","non-repeat","null","270","stimuli/stream_37.jpg","","","","",""
"","","","","","image-keyboard-response","311","2.0.0","1341783","p0skpjr7w1p","flamingo","null","stimuli/desert_21.jpg","null","desert","H","non-repeat","null","271","stimuli/desert_21.jpg","","","","",""
"","","","","","image-keyboard-response","312","2.0.0","1342786","p0skpjr7w1p","flamingo","null","stimuli/bar_16.jpg","null","bar","I","non-repeat","null","272","stimuli/bar_16.jpg","","","","",""
"","","","","","image-keyboard-response","313","2.0.0","1343790","p0skpjr7w1p","flamingo","null","stimuli/coast_25.jpg","null","coast","J","non-repeat","null","273","stimuli/coast_25.jpg","","","","",""
"","","","","","image-keyboard-response","314","2.0.0","1344794","p0skpjr7w1p","flamingo","666","stimuli/coast_25.jpg"," ","coast","J","repeat"," ","273","","","","","",""
"","","","","","image-keyboard-response","315","2.0.0","1345797","p0skpjr7w1p","flamingo","null","stimuli/woods_33.jpg","null","woods","K","non-repeat","null","274","stimuli/woods_33.jpg","","","","",""
"","","","","","image-keyboard-response","316","2.0.0","1346800","p0skpjr7w1p","flamingo","null","stimuli/kitchen_43.jpg","null","kitchen","L","non-repeat","null","275","stimuli/kitchen_43.jpg","","","","",""
"","","","","","image-keyboard-response","317","2.0.0","1347804","p0skpjr7w1p","flamingo","554","stimuli/kitchen_43.jpg"," ","kitchen","L","repeat"," ","275","","","","","",""
"","","","","","image-keyboard-response","318","2.0.0","1348807","p0skpjr7w1p","flamingo","null","stimuli/field_23.jpg","null","field","D","non-repeat","null","276","stimuli/field_23.jpg","","","","",""
"","","","","","image-keyboard-response","319","2.0.0","1349810","p0skpjr7w1p","flamingo","null","stimuli/bathroom_24.jpg","null","bathroom","E","non-repeat","null","277","stimuli/bathroom_24.jpg","","","","",""
"","","","","","image-keyboard-response","320","2.0.0","1350812","p0skpjr7w1p","flamingo","null","stimuli/bridge_12.jpg","null","bridge","F","non-repeat","null","278","stimuli/bridge_12.jpg","","","","",""
"","","","","","image-keyboard-response","321","2.0.0","1351814","p0skpjr7w1p","flamingo","null","stimuli/stream_37.jpg","null","stream","G","non-repeat","null","279","stimuli/stream_37.jpg","","","","",""
"","","","","","image-keyboard-response","322","2.0.0","1352818","p0skpjr7w1p","flamingo","null","stimuli/desert_21.jpg","null","desert","H","non-repeat","null","280","stimuli/desert_21.jpg","","","","",""
"","","","","","image-keyboard-response","323","2.0.0","1353822","p0skpjr7w1p","flamingo","null","stimuli/bar_16.jpg","null","bar","I","non-repeat","null","281","stimuli/bar_16.jpg","","","","",""
"","","","","","image-keyboard-response","324","2.0.0","1354825","p0skpjr7w1p","flamingo","723","stimuli/bar_16.jpg"," ","bar","I","repeat"," ","281","","","","","",""
"","","","","","image-keyboard-response","325","2.0.0","1355828","p0skpjr7w1p","flamingo","null","stimuli/field_23.jpg","null","field","D","non-repeat","null","282","stimuli/field_23.jpg","","","","",""
"","","","","","image-keyboard-response","326","2.0.0","1356831","p0skpjr7w1p","flamingo","501","stimuli/field_23.jpg"," ","field","D","repeat"," ","282","","","","","",""
"","","","","","image-keyboard-response","327","2.0.0","1357834","p0skpjr7w1p","flamingo","null","stimuli/bathroom_24.jpg","null","bathroom","E","non-repeat","null","283","stimuli/bathroom_24.jpg","","","","",""
"","","","","","image-keyboard-response","328","2.0.0","1358838","p0skpjr7w1p","flamingo","null","stimuli/bridge_12.jpg","null","bridge","F","non-repeat","null","284","stimuli/bridge_12.jpg","","","","",""
"","","","","","image-keyboard-response","329","2.0.0","1359841","p0skpjr7w1p","flamingo","624","stimuli/bridge_12.jpg"," ","bridge","F","repeat"," ","284","","","","","",""
"","","","","","image-keyboard-response","330","2.0.0","1360844","p0skpjr7w1p","flamingo","null","stimuli/stream_37.jpg","null","stream","G","non-repeat","null","285","stimuli/stream_37.jpg","","","","",""
"","","","","","image-keyboard-response","331","2.0.0","1361846","p0skpjr7w1p","flamingo","null","stimuli/desert_21.jpg","null","desert","H","non-repeat","null","286","stimuli/desert_21.jpg","","","","",""
"","","","","","image-keyboard-response","332","2.0.0","1362849","p0skpjr7w1p","flamingo","null","stimuli/bar_16.jpg","null","bar","I","non-repeat","null","287","stimuli/bar_16.jpg","","","","",""
"","","","","","image-keyboard-response","333","2.0.0","1363852","p0skpjr7w1p","flamingo","null","stimuli/coast_25.jpg","null","coast","J","non-repeat","null","288","stimuli/coast_25.jpg","","","","",""
"","","","","","image-keyboard-response","334","2.0.0","1364856","p0skpjr7w1p","flamingo","null","stimuli/woods_33.jpg","null","woods","K","non-repeat","null","289","stimuli/woods_33.jpg","","","","",""
"","","","","","image-keyboard-response","335","2.0.0","1365859","p0skpjr7w1p","flamingo","null","stimuli/kitchen_43.jpg","null","kitchen","L","non-repeat","null","290","stimuli/kitchen_43.jpg","","","","",""
"","","","","","image-keyboard-response","336","2.0.0","1366861","p0skpjr7w1p","flamingo","null","stimuli/gym_4.jpg","null","gym","A","non-repeat","null","291","stimuli/gym_4.jpg","","","","",""
"","","","","","image-keyboard-response","337","2.0.0","1367865","p0skpjr7w1p","flamingo","459","stimuli/gym_4.jpg"," ","gym","A","repeat"," ","291","","","","","",""
"","","","","","image-keyboard-response","338","2.0.0","1368869","p0skpjr7w1p","flamingo","null","stimuli/playground_16.jpg","null","playground","B","non-repeat","null","292","stimuli/playground_16.jpg","","","","",""
"","","","","","image-keyboard-response","339","2.0.0","1369871","p0skpjr7w1p","flamingo","null","stimuli/street_23.jpg","null","street","C","non-repeat","null","293","stimuli/street_23.jpg","","","","",""
"","","","","","image-keyboard-response","340","2.0.0","1370875","p0skpjr7w1p","flamingo","722","stimuli/street_23.jpg"," ","street","C","repeat"," ","293","","","","","",""
"","","","","","image-keyboard-response","341","2.0.0","1371879","p0skpjr7w1p","flamingo","null","stimuli/field_23.jpg","null","field","D","non-repeat","null","294","stimuli/field_23.jpg","","","","",""
"","","","","","image-keyboard-response","342","2.0.0","1372882","p0skpjr7w1p","flamingo","null","stimuli/bathroom_24.jpg","null","bathroom","E","non-repeat","null","295","stimuli/bathroom_24.jpg","","","","",""
"","","","","","image-keyboard-response","343","2.0.0","1373885","p0skpjr7w1p","flamingo","null","stimuli/bridge_12.jpg","null","bridge","F","non-repeat","null","296","stimuli/bridge_12.jpg","","","","",""
"","","","","","image-keyboard-response","344","2.0.0","1374889","p0skpjr7w1p","flamingo","463","stimuli/bridge_12.jpg"," ","bridge","F","repeat"," ","296","","","","","",""
"","","","","","image-keyboard-response","345","2.0.0","1375892","p0skpjr7w1p","flamingo","null","stimuli/gym_4.jpg","null","gym","A","non-repeat","null","297","stimuli/gym_4.jpg","","","","",""
"","","","","","image-keyboard-response","346","2.0.0","1376894","p0skpjr7w1p","flamingo","null","stimuli/playground_16.jpg","null","playground","B","non-repeat","null","298","stimuli/playground_16.jpg","","","","",""
"","","","","","image-keyboard-response","347","2.0.0","1377896","p0skpjr7w1p","flamingo","null","stimuli/street_23.jpg","null","street","C","non-repeat","null","299","stimuli/street_23.jpg","","","","",""
"","","","","","image-keyboard-response","348","2.0.0","1378903","p0skpjr7w1p","flamingo","null","stimuli/field_23.jpg","null","field","D","non-repeat","null","300","stimuli/field_23.jpg","","","","",""
"","","","","","image-keyboard-response","349","2.0.0","1379907","p0skpjr7w1p","flamingo","null","stimuli/bathroom_24.jpg","null","bathroom","E","non-repeat","null","301","stimuli/bathroom_24.jpg","","","","",""
"","","","","","image-keyboard-response","350","2.0.0","1380910","p0skpjr7w1p","flamingo","null","stimuli/bridge_12.jpg","null","bridge","F","non-repeat","null","302","stimuli/bridge_12.jpg","","","","",""
"","","","","","image-keyboard-response","351","2.0.0","1381913","p0skpjr7w1p","flamingo","null","stimuli/coast_25.jpg","null","coast","J","non-repeat","null","303","stimuli/coast_25.jpg","","","","",""
"","","","","","image-keyboard-response","352","2.0.0","1382916","p0skpjr7w1p","flamingo","null","stimuli/woods_33.jpg","null","woods","K","non-repeat","null","304","stimuli/woods_33.jpg","","","","",""
"","","","","","image-keyboard-response","353","2.0.0","1383919","p0skpjr7w1p","flamingo","null","stimuli/kitchen_43.jpg","null","kitchen","L","non-repeat","null","305","stimuli/kitchen_43.jpg","","","","",""
"","","","","","image-keyboard-response","354","2.0.0","1384923","p0skpjr7w1p","flamingo","null","stimuli/field_23.jpg","null","field","D","non-repeat","null","306","stimuli/field_23.jpg","","","","",""
"","","","","","image-keyboard-response","355","2.0.0","1385926","p0skpjr7w1p","flamingo","null","stimuli/bathroom_24.jpg","null","bathroom","E","non-repeat","null","307","stimuli/bathroom_24.jpg","","","","",""
"","","","","","image-keyboard-response","356","2.0.0","1386930","p0skpjr7w1p","flamingo","null","stimuli/bridge_12.jpg","null","bridge","F","non-repeat","null","308","stimuli/bridge_12.jpg","","","","",""
"","","","","","image-keyboard-response","357","2.0.0","1387933","p0skpjr7w1p","flamingo","null","stimuli/gym_4.jpg","null","gym","A","non-repeat","null","309","stimuli/gym_4.jpg","","","","",""
"","","","","","image-keyboard-response","358","2.0.0","1388936","p0skpjr7w1p","flamingo","704","stimuli/gym_4.jpg"," ","gym","A","repeat"," ","309","","","","","",""
"","","","","","image-keyboard-response","359","2.0.0","1389940","p0skpjr7w1p","flamingo","null","stimuli/playground_16.jpg","null","playground","B","non-repeat","null","310","stimuli/playground_16.jpg","","","","",""
"","","","","","image-keyboard-response","360","2.0.0","1390944","p0skpjr7w1p","flamingo","null","stimuli/street_23.jpg","null","street","C","non-repeat","null","311","stimuli/street_23.jpg","","","","",""
"","","","","","image-keyboard-response","361","2.0.0","1391947","p0skpjr7w1p","flamingo","null","stimuli/field_23.jpg","null","field","D","non-repeat","null","312","stimuli/field_23.jpg","","","","",""
"","","","","","image-keyboard-response","362","2.0.0","1392950","p0skpjr7w1p","flamingo","null","stimuli/bathroom_24.jpg","null","bathroom","E","non-repeat","null","313","stimuli/bathroom_24.jpg","","","","",""
"","","","","","image-keyboard-response","363","2.0.0","1393954","p0skpjr7w1p","flamingo","null","stimuli/bridge_12.jpg","null","bridge","F","non-repeat","null","314","stimuli/bridge_12.jpg","","","","",""
"","","","","","image-keyboard-response","364","2.0.0","1394957","p0skpjr7w1p","flamingo","null","stimuli/coast_25.jpg","null","coast","J","non-repeat","null","315","stimuli/coast_25.jpg","","","","",""
"","","","","","image-keyboard-response","365","2.0.0","1395959","p0skpjr7w1p","flamingo","null","stimuli/woods_33.jpg","null","woods","K","non-repeat","null","316","stimuli/woods_33.jpg","","","","",""
"","","","","","image-keyboard-response","366","2.0.0","1396962","p0skpjr7w1p","flamingo","null","stimuli/kitchen_43.jpg","null","kitchen","L","non-repeat","null","317","stimuli/kitchen_43.jpg","","","","",""
"","","","","","image-keyboard-response","367","2.0.0","1397966","p0skpjr7w1p","flamingo","null","stimuli/gym_4.jpg","null","gym","A","non-repeat","null","318","stimuli/gym_4.jpg","","","","",""
"","","","","","image-keyboard-response","368","2.0.0","1398969","p0skpjr7w1p","flamingo","null","stimuli/playground_16.jpg","null","playground","B","non-repeat","null","319","stimuli/playground_16.jpg","","","","",""
"","","","","","image-keyboard-response","369","2.0.0","1399973","p0skpjr7w1p","flamingo","null","stimuli/street_23.jpg","null","street","C","non-repeat","null","320","stimuli/street_23.jpg","","","","",""
"","","","","","image-keyboard-response","370","2.0.0","1400976","p0skpjr7w1p","flamingo","null","stimuli/street_23.jpg","null","street","C","repeat"," ","320","","","","","",""
"","","","","","image-keyboard-response","371","2.0.0","1401980","p0skpjr7w1p","flamingo","null","stimuli/stream_37.jpg","null","stream","G","non-repeat","null","321","stimuli/stream_37.jpg","","","","",""
"","","","","","image-keyboard-response","372","2.0.0","1402983","p0skpjr7w1p","flamingo","null","stimuli/desert_21.jpg","null","desert","H","non-repeat","null","322","stimuli/desert_21.jpg","","","","",""
"","","","","","image-keyboard-response","373","2.0.0","1403985","p0skpjr7w1p","flamingo","null","stimuli/bar_16.jpg","null","bar","I","non-repeat","null","323","stimuli/bar_16.jpg","","","","",""
"","","","","","image-keyboard-response","374","2.0.0","1404987","p0skpjr7w1p","flamingo","677","stimuli/bar_16.jpg"," ","bar","I","repeat"," ","323","","","","","",""
"","","","","","image-keyboard-response","375","2.0.0","1405991","p0skpjr7w1p","flamingo","null","stimuli/field_23.jpg","null","field","D","non-repeat","null","324","stimuli/field_23.jpg","","","","",""
"","","","","","image-keyboard-response","376","2.0.0","1406994","p0skpjr7w1p","flamingo","null","stimuli/bathroom_24.jpg","null","bathroom","E","non-repeat","null","325","stimuli/bathroom_24.jpg","","","","",""
"","","","","","image-keyboard-response","377","2.0.0","1407997","p0skpjr7w1p","flamingo","null","stimuli/bridge_12.jpg","null","bridge","F","non-repeat","null","326","stimuli/bridge_12.jpg","","","","",""
"","","","","","image-keyboard-response","378","2.0.0","1409000","p0skpjr7w1p","flamingo","null","stimuli/stream_37.jpg","null","stream","G","non-repeat","null","327","stimuli/stream_37.jpg","","","","",""
"","","","","","image-keyboard-response","379","2.0.0","1410004","p0skpjr7w1p","flamingo","null","stimuli/desert_21.jpg","null","desert","H","non-repeat","null","328","stimuli/desert_21.jpg","","","","",""
"","","","","","image-keyboard-response","380","2.0.0","1411007","p0skpjr7w1p","flamingo","null","stimuli/bar_16.jpg","null","bar","I","non-repeat","null","329","stimuli/bar_16.jpg","","","","",""
"","","","","","image-keyboard-response","381","2.0.0","1412011","p0skpjr7w1p","flamingo","null","stimuli/field_23.jpg","null","field","D","non-repeat","null","330","stimuli/field_23.jpg","","","","",""
"","","","","","image-keyboard-response","382","2.0.0","1413014","p0skpjr7w1p","flamingo","null","stimuli/bathroom_24.jpg","null","bathroom","E","non-repeat","null","331","stimuli/bathroom_24.jpg","","","","",""
"","","","","","image-keyboard-response","383","2.0.0","1414017","p0skpjr7w1p","flamingo","null","stimuli/bridge_12.jpg","null","bridge","F","non-repeat","null","332","stimuli/bridge_12.jpg","","","","",""
"","","","","","image-keyboard-response","384","2.0.0","1415021","p0skpjr7w1p","flamingo","522","stimuli/bridge_12.jpg"," ","bridge","F","repeat"," ","332","","","","","",""
"","","","","","image-keyboard-response","385","2.0.0","1416024","p0skpjr7w1p","flamingo","null","stimuli/coast_25.jpg","null","coast","J","non-repeat","null","333","stimuli/coast_25.jpg","","","","",""
"","","","","","image-keyboard-response","386","2.0.0","1417028","p0skpjr7w1p","flamingo","null","stimuli/woods_33.jpg","null","woods","K","non-repeat","null","334","stimuli/woods_33.jpg","","","","",""
"","","","","","image-keyboard-response","387","2.0.0","1418031","p0skpjr7w1p","flamingo","null","stimuli/kitchen_43.jpg","null","kitchen","L","non-repeat","null","335","stimuli/kitchen_43.jpg","","","","",""
"","","","","","image-keyboard-response","388","2.0.0","1419035","p0skpjr7w1p","flamingo","null","stimuli/field_23.jpg","null","field","D","non-repeat","null","336","stimuli/field_23.jpg","","","","",""
"","","","","","image-keyboard-response","389","2.0.0","1420038","p0skpjr7w1p","flamingo","null","stimuli/bathroom_24.jpg","null","bathroom","E","non-repeat","null","337","stimuli/bathroom_24.jpg","","","","",""
"","","","","","image-keyboard-response","390","2.0.0","1421042","p0skpjr7w1p","flamingo","809","stimuli/bridge_12.jpg"," ","bridge","F","non-repeat","null","338","stimuli/bridge_12.jpg","","","","",""
"","","","","","image-keyboard-response","391","2.0.0","1422045","p0skpjr7w1p","flamingo","null","stimuli/gym_4.jpg","null","gym","A","non-repeat","null","339","stimuli/gym_4.jpg","","","","",""
"","","","","","image-keyboard-response","392","2.0.0","1423048","p0skpjr7w1p","flamingo","892","stimuli/playground_16.jpg"," ","playground","B","non-repeat","null","340","stimuli/playground_16.jpg","","","","",""
"","","","","","image-keyboard-response","393","2.0.0","1424052","p0skpjr7w1p","flamingo","null","stimuli/street_23.jpg","null","street","C","non-repeat","null","341","stimuli/street_23.jpg","","","","",""
"","","","","","image-keyboard-response","394","2.0.0","1425055","p0skpjr7w1p","flamingo","null","stimuli/stream_37.jpg","null","stream","G","non-repeat","null","342","stimuli/stream_37.jpg","","","","",""
"","","","","","image-keyboard-response","395","2.0.0","1426058","p0skpjr7w1p","flamingo","null","stimuli/desert_21.jpg","null","desert","H","non-repeat","null","343","stimuli/desert_21.jpg","","","","",""
"","","","","","image-keyboard-response","396","2.0.0","1427062","p0skpjr7w1p","flamingo","null","stimuli/bar_16.jpg","null","bar","I","non-repeat","null","344","stimuli/bar_16.jpg","","","","",""
"","","","","","image-keyboard-response","397","2.0.0","1428065","p0skpjr7w1p","flamingo","null","stimuli/gym_4.jpg","null","gym","A","non-repeat","null","345","stimuli/gym_4.jpg","","","","",""
"","","","","","image-keyboard-response","398","2.0.0","1429068","p0skpjr7w1p","flamingo","null","stimuli/playground_16.jpg","null","playground","B","non-repeat","null","346","stimuli/playground_16.jpg","","","","",""
"","","","","","image-keyboard-response","399","2.0.0","1430071","p0skpjr7w1p","flamingo","null","stimuli/street_23.jpg","null","street","C","non-repeat","null","347","stimuli/street_23.jpg","","","","",""
"","","","","","image-keyboard-response","400","2.0.0","1431075","p0skpjr7w1p","flamingo","null","stimuli/stream_37.jpg","null","stream","G","non-repeat","null","348","stimuli/stream_37.jpg","","","","",""
"","","","","","image-keyboard-response","401","2.0.0","1432079","p0skpjr7w1p","flamingo","null","stimuli/desert_21.jpg","null","desert","H","non-repeat","null","349","stimuli/desert_21.jpg","","","","",""
"","","","","","image-keyboard-response","402","2.0.0","1433082","p0skpjr7w1p","flamingo","null","stimuli/bar_16.jpg","null","bar","I","non-repeat","null","350","stimuli/bar_16.jpg","","","","",""
"","","","","","image-keyboard-response","403","2.0.0","1434085","p0skpjr7w1p","flamingo","null","stimuli/gym_4.jpg","null","gym","A","non-repeat","null","351","stimuli/gym_4.jpg","","","","",""
"","","","","","image-keyboard-response","404","2.0.0","1435088","p0skpjr7w1p","flamingo","null","stimuli/playground_16.jpg","null","playground","B","non-repeat","null","352","stimuli/playground_16.jpg","","","","",""
"","","","","","image-keyboard-response","405","2.0.0","1436092","p0skpjr7w1p","flamingo","null","stimuli/street_23.jpg","null","street","C","non-repeat","null","353","stimuli/street_23.jpg","","","","",""
"","","","","","image-keyboard-response","406","2.0.0","1437095","p0skpjr7w1p","flamingo","null","stimuli/field_23.jpg","null","field","D","non-repeat","null","354","stimuli/field_23.jpg","","","","",""
"","","","","","image-keyboard-response","407","2.0.0","1438097","p0skpjr7w1p","flamingo","null","stimuli/bathroom_24.jpg","null","bathroom","E","non-repeat","null","355","stimuli/bathroom_24.jpg","","","","",""
"","","","","","image-keyboard-response","408","2.0.0","1439101","p0skpjr7w1p","flamingo","null","stimuli/bridge_12.jpg","null","bridge","F","non-repeat","null","356","stimuli/bridge_12.jpg","","","","",""
"","","","","","image-keyboard-response","409","2.0.0","1440104","p0skpjr7w1p","flamingo","null","stimuli/gym_4.jpg","null","gym","A","non-repeat","null","357","stimuli/gym_4.jpg","","","","",""
"","","","","","image-keyboard-response","410","2.0.0","1441107","p0skpjr7w1p","flamingo","null","stimuli/playground_16.jpg","null","playground","B","non-repeat","null","358","stimuli/playground_16.jpg","","","","",""
"","","","","","image-keyboard-response","411","2.0.0","1442110","p0skpjr7w1p","flamingo","null","stimuli/street_23.jpg","null","street","C","non-repeat","null","359","stimuli/street_23.jpg","","","","",""
"","","","","","image-keyboard-response","412","2.0.0","1443114","p0skpjr7w1p","flamingo","null","stimuli/coast_25.jpg","null","coast","J","non-repeat","null","360","stimuli/coast_25.jpg","","","","",""
"","","","","","image-keyboard-response","413","2.0.0","1444117","p0skpjr7w1p","flamingo","null","stimuli/woods_33.jpg","null","woods","K","non-repeat","null","361","stimuli/woods_33.jpg","","","","",""
"","","","","","image-keyboard-response","414","2.0.0","1445120","p0skpjr7w1p","flamingo","null","stimuli/kitchen_43.jpg","null","kitchen","L","non-repeat","null","362","stimuli/kitchen_43.jpg","","","","",""
"","","","","","image-keyboard-response","415","2.0.0","1446124","p0skpjr7w1p","flamingo","null","stimuli/stream_37.jpg","null","stream","G","non-repeat","null","363","stimuli/stream_37.jpg","","","","",""
"","","","","","image-keyboard-response","416","2.0.0","1447127","p0skpjr7w1p","flamingo","null","stimuli/desert_21.jpg","null","desert","H","non-repeat","null","364","stimuli/desert_21.jpg","","","","",""
"","","","","","image-keyboard-response","417","2.0.0","1448131","p0skpjr7w1p","flamingo","null","stimuli/bar_16.jpg","null","bar","I","non-repeat","null","365","stimuli/bar_16.jpg","","","","",""
"","","","","","image-keyboard-response","418","2.0.0","1449135","p0skpjr7w1p","flamingo","null","stimuli/gym_4.jpg","null","gym","A","non-repeat","null","366","stimuli/gym_4.jpg","","","","",""
"","","","","","image-keyboard-response","419","2.0.0","1450139","p0skpjr7w1p","flamingo","null","stimuli/playground_16.jpg","null","playground","B","non-repeat","null","367","stimuli/playground_16.jpg","","","","",""
"","","","","","image-keyboard-response","420","2.0.0","1451142","p0skpjr7w1p","flamingo","null","stimuli/street_23.jpg","null","street","C","non-repeat","null","368","stimuli/street_23.jpg","","","","",""
"","","","","","image-keyboard-response","421","2.0.0","1452146","p0skpjr7w1p","flamingo","null","stimuli/stream_37.jpg","null","stream","G","non-repeat","null","369","stimuli/stream_37.jpg","","","","",""
"","","","","","image-keyboard-response","422","2.0.0","1453149","p0skpjr7w1p","flamingo","435","stimuli/stream_37.jpg"," ","stream","G","repeat"," ","369","","","","","",""
"","","","","","image-keyboard-response","423","2.0.0","1454152","p0skpjr7w1p","flamingo","null","stimuli/desert_21.jpg","null","desert","H","non-repeat","null","370","stimuli/desert_21.jpg","","","","",""
"","","","","","image-keyboard-response","424","2.0.0","1455156","p0skpjr7w1p","flamingo","null","stimuli/bar_16.jpg","null","bar","I","non-repeat","null","371","stimuli/bar_16.jpg","","","","",""
"","","","","","image-keyboard-response","425","2.0.0","1456160","p0skpjr7w1p","flamingo","null","stimuli/bar_16.jpg","null","bar","I","repeat"," ","371","","","","","",""
"","","","","","image-keyboard-response","426","2.0.0","1457163","p0skpjr7w1p","flamingo","286","stimuli/field_23.jpg"," ","field","D","non-repeat","null","372","stimuli/field_23.jpg","","","","",""
"","","","","","image-keyboard-response","427","2.0.0","1458166","p0skpjr7w1p","flamingo","null","stimuli/bathroom_24.jpg","null","bathroom","E","non-repeat","null","373","stimuli/bathroom_24.jpg","","","","",""
"","","","","","image-keyboard-response","428","2.0.0","1459168","p0skpjr7w1p","flamingo","null","stimuli/bridge_12.jpg","null","bridge","F","non-repeat","null","374","stimuli/bridge_12.jpg","","","","",""
"","","","","","image-keyboard-response","429","2.0.0","1460172","p0skpjr7w1p","flamingo","null","stimuli/stream_37.jpg","null","stream","G","non-repeat","null","375","stimuli/stream_37.jpg","","","","",""
"","","","","","image-keyboard-response","430","2.0.0","1461176","p0skpjr7w1p","flamingo","531","stimuli/stream_37.jpg"," ","stream","G","repeat"," ","375","","","","","",""
"","","","","","image-keyboard-response","431","2.0.0","1462179","p0skpjr7w1p","flamingo","null","stimuli/desert_21.jpg","null","desert","H","non-repeat","null","376","stimuli/desert_21.jpg","","","","",""
"","","","","","image-keyboard-response","432","2.0.0","1463183","p0skpjr7w1p","flamingo","null","stimuli/bar_16.jpg","null","bar","I","non-repeat","null","377","stimuli/bar_16.jpg","","","","",""
"","","","","","image-keyboard-response","433","2.0.0","1464187","p0skpjr7w1p","flamingo","null","stimuli/coast_25.jpg","null","coast","J","non-repeat","null","378","stimuli/coast_25.jpg","","","","",""
"","","","","","image-keyboard-response","434","2.0.0","1465194","p0skpjr7w1p","flamingo","null","stimuli/woods_33.jpg","null","woods","K","non-repeat","null","379","stimuli/woods_33.jpg","","","","",""
"","","","","","image-keyboard-response","435","2.0.0","1466197","p0skpjr7w1p","flamingo","null","stimuli/kitchen_43.jpg","null","kitchen","L","non-repeat","null","380","stimuli/kitchen_43.jpg","","","","",""
"","","","","","image-keyboard-response","436","2.0.0","1467201","p0skpjr7w1p","flamingo","null","stimuli/stream_37.jpg","null","stream","G","non-repeat","null","381","stimuli/stream_37.jpg","","","","",""
"","","","","","image-keyboard-response","437","2.0.0","1468204","p0skpjr7w1p","flamingo","null","stimuli/desert_21.jpg","null","desert","H","non-repeat","null","382","stimuli/desert_21.jpg","","","","",""
"","","","","","image-keyboard-response","438","2.0.0","1469208","p0skpjr7w1p","flamingo","null","stimuli/bar_16.jpg","null","bar","I","non-repeat","null","383","stimuli/bar_16.jpg","","","","",""
"","","","","","image-keyboard-response","439","2.0.0","1470212","p0skpjr7w1p","flamingo","505","stimuli/bar_16.jpg"," ","bar","I","repeat"," ","383","","","","","",""
"","","","","","image-keyboard-response","440","2.0.0","1471215","p0skpjr7w1p","flamingo","null","stimuli/gym_4.jpg","null","gym","A","non-repeat","null","384","stimuli/gym_4.jpg","","","","",""
"","","","","","image-keyboard-response","441","2.0.0","1472219","p0skpjr7w1p","flamingo","null","stimuli/playground_16.jpg","null","playground","B","non-repeat","null","385","stimuli/playground_16.jpg","","","","",""
"","","","","","image-keyboard-response","442","2.0.0","1473222","p0skpjr7w1p","flamingo","null","stimuli/street_23.jpg","null","street","C","non-repeat","null","386","stimuli/street_23.jpg","","","","",""
"","","","","","image-keyboard-response","443","2.0.0","1474225","p0skpjr7w1p","flamingo","null","stimuli/street_23.jpg","null","street","C","repeat"," ","386","","","","","",""
"","","","","","image-keyboard-response","444","2.0.0","1475229","p0skpjr7w1p","flamingo","null","stimuli/stream_37.jpg","null","stream","G","non-repeat","null","387","stimuli/stream_37.jpg","","","","",""
"","","","","","image-keyboard-response","445","2.0.0","1476232","p0skpjr7w1p","flamingo","null","stimuli/desert_21.jpg","null","desert","H","non-repeat","null","388","stimuli/desert_21.jpg","","","","",""
"","","","","","image-keyboard-response","446","2.0.0","1477235","p0skpjr7w1p","flamingo","null","stimuli/bar_16.jpg","null","bar","I","non-repeat","null","389","stimuli/bar_16.jpg","","","","",""
"","","","","","image-keyboard-response","447","2.0.0","1478238","p0skpjr7w1p","flamingo","null","stimuli/field_23.jpg","null","field","D","non-repeat","null","390","stimuli/field_23.jpg","","","","",""
"","","","","","image-keyboard-response","448","2.0.0","1479242","p0skpjr7w1p","flamingo","null","stimuli/bathroom_24.jpg","null","bathroom","E","non-repeat","null","391","stimuli/bathroom_24.jpg","","","","",""
"","","","","","image-keyboard-response","449","2.0.0","1480245","p0skpjr7w1p","flamingo","null","stimuli/bridge_12.jpg","null","bridge","F","non-repeat","null","392","stimuli/bridge_12.jpg","","","","",""
"","","","","","image-keyboard-response","450","2.0.0","1481249","p0skpjr7w1p","flamingo","null","stimuli/coast_25.jpg","null","coast","J","non-repeat","null","393","stimuli/coast_25.jpg","","","","",""
"","","","","","image-keyboard-response","451","2.0.0","1482252","p0skpjr7w1p","flamingo","null","stimuli/woods_33.jpg","null","woods","K","non-repeat","null","394","stimuli/woods_33.jpg","","","","",""
"","","","","","image-keyboard-response","452","2.0.0","1483256","p0skpjr7w1p","flamingo","null","stimuli/kitchen_43.jpg","null","kitchen","L","non-repeat","null","395","stimuli/kitchen_43.jpg","","","","",""
"","","","","","image-keyboard-response","453","2.0.0","1484259","p0skpjr7w1p","flamingo","null","stimuli/stream_37.jpg","null","stream","G","non-repeat","null","396","stimuli/stream_37.jpg","","","","",""
"","","","","","image-keyboard-response","454","2.0.0","1485262","p0skpjr7w1p","flamingo","null","stimuli/desert_21.jpg","null","desert","H","non-repeat","null","397","stimuli/desert_21.jpg","","","","",""
"","","","","","image-keyboard-response","455","2.0.0","1486265","p0skpjr7w1p","flamingo","null","stimuli/bar_16.jpg","null","bar","I","non-repeat","null","398","stimuli/bar_16.jpg","","","","",""
"","","","","","image-keyboard-response","456","2.0.0","1487269","p0skpjr7w1p","flamingo","null","stimuli/gym_4.jpg","null","gym","A","non-repeat","null","399","stimuli/gym_4.jpg","","","","",""
"","","","","","image-keyboard-response","457","2.0.0","1488271","p0skpjr7w1p","flamingo","null","stimuli/playground_16.jpg","null","playground","B","non-repeat","null","400","stimuli/playground_16.jpg","","","","",""
"","","","","","image-keyboard-response","458","2.0.0","1489273","p0skpjr7w1p","flamingo","null","stimuli/street_23.jpg","null","street","C","non-repeat","null","401","stimuli/street_23.jpg","","","","",""
"","","","","","image-keyboard-response","459","2.0.0","1490277","p0skpjr7w1p","flamingo","null","stimuli/stream_37.jpg","null","stream","G","non-repeat","null","402","stimuli/stream_37.jpg","","","","",""
"","","","","","image-keyboard-response","460","2.0.0","1491281","p0skpjr7w1p","flamingo","null","stimuli/desert_21.jpg","null","desert","H","non-repeat","null","403","stimuli/desert_21.jpg","","","","",""
"","","","","","image-keyboard-response","461","2.0.0","1492284","p0skpjr7w1p","flamingo","null","stimuli/bar_16.jpg","null","bar","I","non-repeat","null","404","stimuli/bar_16.jpg","","","","",""
"","","","","","image-keyboard-response","462","2.0.0","1493287","p0skpjr7w1p","flamingo","null","stimuli/coast_25.jpg","null","coast","J","non-repeat","null","405","stimuli/coast_25.jpg","","","","",""
"","","","","","image-keyboard-response","463","2.0.0","1494291","p0skpjr7w1p","flamingo","null","stimuli/woods_33.jpg","null","woods","K","non-repeat","null","406","stimuli/woods_33.jpg","","","","",""
"","","","","","image-keyboard-response","464","2.0.0","1495294","p0skpjr7w1p","flamingo","null","stimuli/kitchen_43.jpg","null","kitchen","L","non-repeat","null","407","stimuli/kitchen_43.jpg","","","","",""
"","","","","","image-keyboard-response","465","2.0.0","1496297","p0skpjr7w1p","flamingo","null","stimuli/gym_4.jpg","null","gym","A","non-repeat","null","408","stimuli/gym_4.jpg","","","","",""
"","","","","","image-keyboard-response","466","2.0.0","1497301","p0skpjr7w1p","flamingo","null","stimuli/playground_16.jpg","null","playground","B","non-repeat","null","409","stimuli/playground_16.jpg","","","","",""
"","","","","","image-keyboard-response","467","2.0.0","1498305","p0skpjr7w1p","flamingo","null","stimuli/street_23.jpg","null","street","C","non-repeat","null","410","stimuli/street_23.jpg","","","","",""
"","","","","","image-keyboard-response","468","2.0.0","1499308","p0skpjr7w1p","flamingo","933","stimuli/street_23.jpg"," ","street","C","repeat"," ","410","","","","","",""
"","","","","","image-keyboard-response","469","2.0.0","1500311","p0skpjr7w1p","flamingo","null","stimuli/field_23.jpg","null","field","D","non-repeat","null","411","stimuli/field_23.jpg","","","","",""
"","","","","","image-keyboard-response","470","2.0.0","1501314","p0skpjr7w1p","flamingo","486","stimuli/field_23.jpg"," ","field","D","repeat"," ","411","","","","","",""
"","","","","","image-keyboard-response","471","2.0.0","1502317","p0skpjr7w1p","flamingo","null","stimuli/bathroom_24.jpg","null","bathroom","E","non-repeat","null","412","stimuli/bathroom_24.jpg","","","","",""
"","","","","","image-keyboard-response","472","2.0.0","1503321","p0skpjr7w1p","flamingo","null","stimuli/bridge_12.jpg","null","bridge","F","non-repeat","null","413","stimuli/bridge_12.jpg","","","","",""
"","","","","","image-keyboard-response","473","2.0.0","1504324","p0skpjr7w1p","flamingo","null","stimuli/stream_37.jpg","null","stream","G","non-repeat","null","414","stimuli/stream_37.jpg","","","","",""
"","","","","","image-keyboard-response","474","2.0.0","1505327","p0skpjr7w1p","flamingo","null","stimuli/desert_21.jpg","null","desert","H","non-repeat","null","415","stimuli/desert_21.jpg","","","","",""
"","","","","","image-keyboard-response","475","2.0.0","1506330","p0skpjr7w1p","flamingo","null","stimuli/bar_16.jpg","null","bar","I","non-repeat","null","416","stimuli/bar_16.jpg","","","","",""
"","","","","","html-keyboard-response","476","2.0.0","1522519","p0skpjr7w1p","flamingo","16187","
    <div style='width:900px;margin: auto;'><p>In the next part of the experiment, we want to see how well you learned the structure in the stream of images.</p>
    <p>On each trial, you will see two sequences of three images, sequence 1 and 2. We will ask you to indicate which sequence was more familiar based on the first part of the experiment.</p>
    <p>Press 1 if the first sequence (sequence 1) felt more familiar. Press 2 if the second sequence (sequence 2) felt more familiar.</p>
    <p>Press any key to begin.</p></div>"," ","","","","","","","","","","",""
"","","","","","html-keyboard-response","477","2.0.0","1523521","p0skpjr7w1p","flamingo","null","<p>Sequence 1</p>","null","","","","","","","","","","",""
"","","","","","image-keyboard-response","478","2.0.0","1524524","p0skpjr7w1p","flamingo","null","stimuli/gym_4.jpg","null","","","","","","","","","","",""
"","","","","","image-keyboard-response","479","2.0.0","1525527","p0skpjr7w1p","flamingo","null","stimuli/playground_16.jpg","null","","","","","","","","","","",""
"","","","","","image-keyboard-response","480","2.0.0","1526530","p0skpjr7w1p","flamingo","null","stimuli/street_23.jpg","null","","","","","","","","","","",""
"","","","","","html-keyboard-response","481","2.0.0","1527533","p0skpjr7w1p","flamingo","null","<p></p>","null","","","","","","","","","","",""
"","","","","","html-keyboard-response","482","2.0.0","1528535","p0skpjr7w1p","flamingo","null","<p>Sequence 2</p>","null","","","","","","","","","","",""
"","","","","","image-keyboard-response","483","2.0.0","1529539","p0skpjr7w1p","flamingo","null","stimuli/field_23.jpg","null","","","","","","","","","","",""
"","","","","","image-keyboard-response","484","2.0.0","1530542","p0skpjr7w1p","flamingo","null","stimuli/desert_21.jpg","null","","","","","","","","","","",""
"","","","","","image-keyboard-response","485","2.0.0","1531545","p0skpjr7w1p","flamingo","null","stimuli/kitchen_43.jpg","null","","","","","","","","","","",""
"","","","","","html-keyboard-response","486","2.0.0","1533445","p0skpjr7w1p","flamingo","1900","<p>Press '1' if the first sequence was familiar, '2' if the second was.</p>","1","","","1","","","","[""A"",""B"",""C""]","[""D"",""H"",""L""]","true","[""<p>Sequence 1</p>"",""stimuli/gym_4.jpg"",""stimuli/playground_16.jpg"",""stimuli/street_23.jpg""]","[""<p>Sequence 2</p>"",""stimuli/field_23.jpg"",""stimuli/desert_21.jpg"",""stimuli/kitchen_43.jpg""]"
"","","","","","html-keyboard-response","487","2.0.0","1534448","p0skpjr7w1p","flamingo","null","<p>Sequence 1</p>","null","","","","","","","","","","",""
"","","","","","image-keyboard-response","488","2.0.0","1535451","p0skpjr7w1p","flamingo","null","stimuli/stream_37.jpg","null","","","","","","","","","","",""
"","","","","","image-keyboard-response","489","2.0.0","1536455","p0skpjr7w1p","flamingo","null","stimuli/woods_33.jpg","null","","","","","","","","","","",""
"","","","","","image-keyboard-response","490","2.0.0","1537458","p0skpjr7w1p","flamingo","null","stimuli/street_23.jpg","null","","","","","","","","","","",""
"","","","","","html-keyboard-response","491","2.0.0","1538461","p0skpjr7w1p","flamingo","null","<p></p>","null","","","","","","","","","","",""
