"success","timeout","failed_images","failed_audio","failed_video","trial_type","trial_index","plugin_version","time_elapsed","random_id","participant","rt","stimulus","response","category","letter","correct_response","correct_response_key","trial_counter","current_image","test_triplet","foil_triplet","correct","firstSequencePaths","secondSequencePaths"
"true","false","[]","[]","[]","preload","0","2.0.0","184","p1mzf32delq","trex","","","","","","","","","","","","","",""
"true","","","","","fullscreen","1","null","5725","p1mzf32delq","trex","4537","","","","","","","","","","","","",""
"","","","","","html-keyboard-response","2","2.0.0","6865","p1mzf32delq","trex","1137","Welcome to the experiment. Press any key to begin."," ","","","","","","","","","","",""
"","","","","","survey-text","3","2.0.0","9474","p1mzf32delq","trex","2603","","{""participant_id"":""trex""}","","","","","","","","","","",""
"","","","","","html-keyboard-response","4","2.0.0","14140","p1mzf32delq","trex","4664","
  <p>For this trial, you will see a series of images.</p>
  <p><b>Press the spacebar whenever you see the same image appear twice in a row.</b></p>
  <p>In other words, whenever the same image repeats back to back, press the spacebar.</p>
  <p>Press any key to begin.</p>"," ","","","","","","","","","","",""
"","","","","","image-keyboard-response","5","2.0.0","15146","p1mzf32delq","trex","null","stimuli/bathroom_37.jpg","null","bathroom","A","non-repeat","null","0","stimuli/bathroom_37.jpg","","","","",""
"","","","","","image-keyboard-response","6","2.0.0","16150","p1mzf32delq","trex","null","stimuli/kitchen_50.jpg","null","kitchen","B","non-repeat","null","1","stimuli/kitchen_50.jpg","","","","",""
"","","","","","image-keyboard-response","7","2.0.0","17155","p1mzf32delq","trex","null","stimuli/field_54.jpg","null","field","C","non-repeat","null","2","stimuli/field_54.jpg","","","","",""
"","","","","","image-keyboard-response","8","2.0.0","18159","p1mzf32delq","trex","null","stimuli/coast_54.jpg","null","coast","D","non-repeat","null","3","stimuli/coast_54.jpg","","","","",""
"","","","","","image-keyboard-response","9","2.0.0","19164","p1mzf32delq","trex","null","stimuli/woods_26.jpg","null","woods","E","non-repeat","null","4","stimuli/woods_26.jpg","","","","",""
"","","","","","image-keyboard-response","10","2.0.0","20168","p1mzf32delq","trex","null","stimuli/bridge_19.jpg","null","bridge","F","non-repeat","null","5","stimuli/bridge_19.jpg","","","","",""
"","","","","","image-keyboard-response","11","2.0.0","21172","p1mzf32delq","trex","null","stimuli/bar_67.jpg","null","bar","J","non-repeat","null","6","stimuli/bar_67.jpg","","","","",""
"","","","","","image-keyboard-response","12","2.0.0","22176","p1mzf32delq","trex","null","stimuli/gym_52.jpg","null","gym","K","non-repeat","null","7","stimuli/gym_52.jpg","","","","",""
"","","","","","image-keyboard-response","13","2.0.0","23180","p1mzf32delq","trex","null","stimuli/desert_50.jpg","null","desert","L","non-repeat","null","8","stimuli/desert_50.jpg","","","","",""
"","","","","","image-keyboard-response","14","2.0.0","24185","p1mzf32delq","trex","null","stimuli/bathroom_37.jpg","null","bathroom","A","non-repeat","null","9","stimuli/bathroom_37.jpg","","","","",""
"","","","","","image-keyboard-response","15","2.0.0","25188","p1mzf32delq","trex","371","stimuli/bathroom_37.jpg"," ","bathroom","A","repeat"," ","9","","","","","",""
"","","","","","image-keyboard-response","16","2.0.0","26192","p1mzf32delq","trex","null","stimuli/kitchen_50.jpg","null","kitchen","B","non-repeat","null","10","stimuli/kitchen_50.jpg","","","","",""
"","","","","","image-keyboard-response","17","2.0.0","27196","p1mzf32delq","trex","null","stimuli/field_54.jpg","null","field","C","non-repeat","null","11","stimuli/field_54.jpg","","","","",""
"","","","","","image-keyboard-response","18","2.0.0","28200","p1mzf32delq","trex","null","stimuli/coast_54.jpg","null","coast","D","non-repeat","null","12","stimuli/coast_54.jpg","","","","",""
"","","","","","image-keyboard-response","19","2.0.0","29204","p1mzf32delq","trex","null","stimuli/woods_26.jpg","null","woods","E","non-repeat","null","13","stimuli/woods_26.jpg","","","","",""
"","","","","","image-keyboard-response","20","2.0.0","30207","p1mzf32delq","trex","null","stimuli/bridge_19.jpg","null","bridge","F","non-repeat","null","14","stimuli/bridge_19.jpg","","","","",""
"","","","","","image-keyboard-response","21","2.0.0","31212","p1mzf32delq","trex","null","stimuli/bar_67.jpg","null","bar","J","non-repeat","null","15","stimuli/bar_67.jpg","","","","",""
"","","","","","image-keyboard-response","22","2.0.0","32216","p1mzf32delq","trex","null","stimuli/gym_52.jpg","null","gym","K","non-repeat","null","16","stimuli/gym_52.jpg","","","","",""
"","","","","","image-keyboard-response","23","2.0.0","33220","p1mzf32delq","trex","null","stimuli/desert_50.jpg","null","desert","L","non-repeat","null","17","stimuli/desert_50.jpg","","","","",""
"","","","","","image-keyboard-response","24","2.0.0","34223","p1mzf32delq","trex","505","stimuli/desert_50.jpg"," ","desert","L","repeat"," ","17","","","","","",""
"","","","","","image-keyboard-response","25","2.0.0","35228","p1mzf32delq","trex","null","stimuli/stream_42.jpg","null","stream","G","non-repeat","null","18","stimuli/stream_42.jpg","","","","",""
"","","","","","image-keyboard-response","26","2.0.0","36231","p1mzf32delq","trex","null","stimuli/street_8.jpg","null","street","H","non-repeat","null","19","stimuli/street_8.jpg","","","","",""
"","","","","","image-keyboard-response","27","2.0.0","37236","p1mzf32delq","trex","null","stimuli/playground_10.jpg","null","playground","I","non-repeat","null","20","stimuli/playground_10.jpg","","","","",""
"","","","","","image-keyboard-response","28","2.0.0","38239","p1mzf32delq","trex","null","stimuli/bathroom_37.jpg","null","bathroom","A","non-repeat","null","21","stimuli/bathroom_37.jpg","","","","",""
"","","","","","image-keyboard-response","29","2.0.0","39244","p1mzf32delq","trex","null","stimuli/kitchen_50.jpg","null","kitchen","B","non-repeat","null","22","stimuli/kitchen_50.jpg","","","","",""
"","","","","","image-keyboard-response","30","2.0.0","40248","p1mzf32delq","trex","null","stimuli/field_54.jpg","null","field","C","non-repeat","null","23","stimuli/field_54.jpg","","","","",""
"","","","","","image-keyboard-response","31","2.0.0","41252","p1mzf32delq","trex","305","stimuli/field_54.jpg"," ","field","C","repeat"," ","23","","","","","",""
"","","","","","image-keyboard-response","32","2.0.0","42255","p1mzf32delq","trex","null","stimuli/stream_42.jpg","null","stream","G","non-repeat","null","24","stimuli/stream_42.jpg","","","","",""
"","","","","","image-keyboard-response","33","2.0.0","43259","p1mzf32delq","trex","null","stimuli/street_8.jpg","null","street","H","non-repeat","null","25","stimuli/street_8.jpg","","","","",""
"","","","","","image-keyboard-response","34","2.0.0","44263","p1mzf32delq","trex","null","stimuli/playground_10.jpg","null","playground","I","non-repeat","null","26","stimuli/playground_10.jpg","","","","",""
"","","","","","image-keyboard-response","35","2.0.0","45267","p1mzf32delq","trex","null","stimuli/bathroom_37.jpg","null","bathroom","A","non-repeat","null","27","stimuli/bathroom_37.jpg","","","","",""
"","","","","","image-keyboard-response","36","2.0.0","46270","p1mzf32delq","trex","null","stimuli/kitchen_50.jpg","null","kitchen","B","non-repeat","null","28","stimuli/kitchen_50.jpg","","","","",""
"","","","","","image-keyboard-response","37","2.0.0","47274","p1mzf32delq","trex","null","stimuli/field_54.jpg","null","field","C","non-repeat","null","29","stimuli/field_54.jpg","","","","",""
"","","","","","image-keyboard-response","38","2.0.0","48278","p1mzf32delq","trex","378","stimuli/field_54.jpg"," ","field","C","repeat"," ","29","","","","","",""
"","","","","","image-keyboard-response","39","2.0.0","49282","p1mzf32delq","trex","null","stimuli/bar_67.jpg","null","bar","J","non-repeat","null","30","stimuli/bar_67.jpg","","","","",""
"","","","","","image-keyboard-response","40","2.0.0","50286","p1mzf32delq","trex","null","stimuli/bar_67.jpg","null","bar","J","repeat"," ","30","","","","","",""
"","","","","","image-keyboard-response","41","2.0.0","51290","p1mzf32delq","trex","null","stimuli/gym_52.jpg","null","gym","K","non-repeat","null","31","stimuli/gym_52.jpg","","","","",""
"","","","","","image-keyboard-response","42","2.0.0","52294","p1mzf32delq","trex","null","stimuli/desert_50.jpg","null","desert","L","non-repeat","null","32","stimuli/desert_50.jpg","","","","",""
"","","","","","image-keyboard-response","43","2.0.0","53299","p1mzf32delq","trex","null","stimuli/stream_42.jpg","null","stream","G","non-repeat","null","33","stimuli/stream_42.jpg","","","","",""
"","","","","","image-keyboard-response","44","2.0.0","54302","p1mzf32delq","trex","null","stimuli/street_8.jpg","null","street","H","non-repeat","null","34","stimuli/street_8.jpg","","","","",""
"","","","","","image-keyboard-response","45","2.0.0","55306","p1mzf32delq","trex","null","stimuli/playground_10.jpg","null","playground","I","non-repeat","null","35","stimuli/playground_10.jpg","","","","",""
"","","","","","image-keyboard-response","46","2.0.0","56310","p1mzf32delq","trex","null","stimuli/bar_67.jpg","null","bar","J","non-repeat","null","36","stimuli/bar_67.jpg","","","","",""
"","","","","","image-keyboard-response","47","2.0.0","57314","p1mzf32delq","trex","null","stimuli/gym_52.jpg","null","gym","K","non-repeat","null","37","stimuli/gym_52.jpg","","","","",""
"","","","","","image-keyboard-response","48","2.0.0","58318","p1mzf32delq","trex","null","stimuli/desert_50.jpg","null","desert","L","non-repeat","null","38","stimuli/desert_50.jpg","","","","",""
"","","","","","image-keyboard-response","49","2.0.0","59322","p1mzf32delq","trex","null","stimuli/bathroom_37.jpg","null","bathroom","A","non-repeat","null","39","stimuli/bathroom_37.jpg","","","","",""
"","","","","","image-keyboard-response","50","2.0.0","60326","p1mzf32delq","trex","null","stimuli/kitchen_50.jpg","null","kitchen","B","non-repeat","null","40","stimuli/kitchen_50.jpg","","","","",""
"","","","","","image-keyboard-response","51","2.0.0","61330","p1mzf32delq","trex","520","stimuli/field_54.jpg"," ","field","C","non-repeat","null","41","stimuli/field_54.jpg","","","","",""
"","","","","","image-keyboard-response","52","2.0.0","62334","p1mzf32delq","trex","483","stimuli/field_54.jpg"," ","field","C","repeat"," ","41","","","","","",""
"","","","","","image-keyboard-response","53","2.0.0","63337","p1mzf32delq","trex","null","stimuli/bar_67.jpg","null","bar","J","non-repeat","null","42","stimuli/bar_67.jpg","","","","",""
"","","","","","image-keyboard-response","54","2.0.0","64341","p1mzf32delq","trex","null","stimuli/gym_52.jpg","null","gym","K","non-repeat","null","43","stimuli/gym_52.jpg","","","","",""
"","","","","","image-keyboard-response","55","2.0.0","65345","p1mzf32delq","trex","null","stimuli/desert_50.jpg","null","desert","L","non-repeat","null","44","stimuli/desert_50.jpg","","","","",""
"","","","","","image-keyboard-response","56","2.0.0","66349","p1mzf32delq","trex","null","stimuli/coast_54.jpg","null","coast","D","non-repeat","null","45","stimuli/coast_54.jpg","","","","",""
"","","","","","image-keyboard-response","57","2.0.0","67353","p1mzf32delq","trex","476","stimuli/coast_54.jpg"," ","coast","D","repeat"," ","45","","","","","",""
"","","","","","image-keyboard-response","58","2.0.0","68357","p1mzf32delq","trex","null","stimuli/woods_26.jpg","null","woods","E","non-repeat","null","46","stimuli/woods_26.jpg","","","","",""
"","","","","","image-keyboard-response","59","2.0.0","69361","p1mzf32delq","trex","null","stimuli/bridge_19.jpg","null","bridge","F","non-repeat","null","47","stimuli/bridge_19.jpg","","","","",""
"","","","","","image-keyboard-response","60","2.0.0","70365","p1mzf32delq","trex","null","stimuli/bar_67.jpg","null","bar","J","non-repeat","null","48","stimuli/bar_67.jpg","","","","",""
"","","","","","image-keyboard-response","61","2.0.0","71370","p1mzf32delq","trex","null","stimuli/gym_52.jpg","null","gym","K","non-repeat","null","49","stimuli/gym_52.jpg","","","","",""
"","","","","","image-keyboard-response","62","2.0.0","72374","p1mzf32delq","trex","null","stimuli/desert_50.jpg","null","desert","L","non-repeat","null","50","stimuli/desert_50.jpg","","","","",""
"","","","","","image-keyboard-response","63","2.0.0","73378","p1mzf32delq","trex","null","stimuli/stream_42.jpg","null","stream","G","non-repeat","null","51","stimuli/stream_42.jpg","","","","",""
"","","","","","image-keyboard-response","64","2.0.0","74382","p1mzf32delq","trex","null","stimuli/street_8.jpg","null","street","H","non-repeat","null","52","stimuli/street_8.jpg","","","","",""
"","","","","","image-keyboard-response","65","2.0.0","75387","p1mzf32delq","trex","null","stimuli/playground_10.jpg","null","playground","I","non-repeat","null","53","stimuli/playground_10.jpg","","","","",""
"","","","","","image-keyboard-response","66","2.0.0","76390","p1mzf32delq","trex","null","stimuli/bathroom_37.jpg","null","bathroom","A","non-repeat","null","54","stimuli/bathroom_37.jpg","","","","",""
"","","","","","image-keyboard-response","67","2.0.0","77394","p1mzf32delq","trex","513","stimuli/bathroom_37.jpg"," ","bathroom","A","repeat"," ","54","","","","","",""
"","","","","","image-keyboard-response","68","2.0.0","78399","p1mzf32delq","trex","null","stimuli/kitchen_50.jpg","null","kitchen","B","non-repeat","null","55","stimuli/kitchen_50.jpg","","","","",""
"","","","","","image-keyboard-response","69","2.0.0","79403","p1mzf32delq","trex","null","stimuli/field_54.jpg","null","field","C","non-repeat","null","56","stimuli/field_54.jpg","","","","",""
"","","","","","image-keyboard-response","70","2.0.0","80408","p1mzf32delq","trex","null","stimuli/bar_67.jpg","null","bar","J","non-repeat","null","57","stimuli/bar_67.jpg","","","","",""
"","","","","","image-keyboard-response","71","2.0.0","81411","p1mzf32delq","trex","null","stimuli/gym_52.jpg","null","gym","K","non-repeat","null","58","stimuli/gym_52.jpg","","","","",""
"","","","","","image-keyboard-response","72","2.0.0","82414","p1mzf32delq","trex","null","stimuli/desert_50.jpg","null","desert","L","non-repeat","null","59","stimuli/desert_50.jpg","","","","",""
"","","","","","image-keyboard-response","73","2.0.0","83418","p1mzf32delq","trex","null","stimuli/coast_54.jpg","null","coast","D","non-repeat","null","60","stimuli/coast_54.jpg","","","","",""
"","","","","","image-keyboard-response","74","2.0.0","84422","p1mzf32delq","trex","null","stimuli/woods_26.jpg","null","woods","E","non-repeat","null","61","stimuli/woods_26.jpg","","","","",""
"","","","","","image-keyboard-response","75","2.0.0","85426","p1mzf32delq","trex","null","stimuli/bridge_19.jpg","null","bridge","F","non-repeat","null","62","stimuli/bridge_19.jpg","","","","",""
"","","","","","image-keyboard-response","76","2.0.0","86429","p1mzf32delq","trex","null","stimuli/bathroom_37.jpg","null","bathroom","A","non-repeat","null","63","stimuli/bathroom_37.jpg","","","","",""
"","","","","","image-keyboard-response","77","2.0.0","87433","p1mzf32delq","trex","null","stimuli/kitchen_50.jpg","null","kitchen","B","non-repeat","null","64","stimuli/kitchen_50.jpg","","","","",""
"","","","","","image-keyboard-response","78","2.0.0","88437","p1mzf32delq","trex","null","stimuli/field_54.jpg","null","field","C","non-repeat","null","65","stimuli/field_54.jpg","","","","",""
"","","","","","image-keyboard-response","79","2.0.0","89440","p1mzf32delq","trex","471","stimuli/field_54.jpg"," ","field","C","repeat"," ","65","","","","","",""
"","","","","","image-keyboard-response","80","2.0.0","90443","p1mzf32delq","trex","null","stimuli/coast_54.jpg","null","coast","D","non-repeat","null","66","stimuli/coast_54.jpg","","","","",""
"","","","","","image-keyboard-response","81","2.0.0","91446","p1mzf32delq","trex","null","stimuli/woods_26.jpg","null","woods","E","non-repeat","null","67","stimuli/woods_26.jpg","","","","",""
"","","","","","image-keyboard-response","82","2.0.0","92450","p1mzf32delq","trex","null","stimuli/bridge_19.jpg","null","bridge","F","non-repeat","null","68","stimuli/bridge_19.jpg","","","","",""
"","","","","","image-keyboard-response","83","2.0.0","93454","p1mzf32delq","trex","null","stimuli/bathroom_37.jpg","null","bathroom","A","non-repeat","null","69","stimuli/bathroom_37.jpg","","","","",""
"","","","","","image-keyboard-response","84","2.0.0","94458","p1mzf32delq","trex","null","stimuli/kitchen_50.jpg","null","kitchen","B","non-repeat","null","70","stimuli/kitchen_50.jpg","","","","",""
"","","","","","image-keyboard-response","85","2.0.0","95462","p1mzf32delq","trex","null","stimuli/field_54.jpg","null","field","C","non-repeat","null","71","stimuli/field_54.jpg","","","","",""
"","","","","","image-keyboard-response","86","2.0.0","96466","p1mzf32delq","trex","null","stimuli/coast_54.jpg","null","coast","D","non-repeat","null","72","stimuli/coast_54.jpg","","","","",""
"","","","","","image-keyboard-response","87","2.0.0","97470","p1mzf32delq","trex","null","stimuli/woods_26.jpg","null","woods","E","non-repeat","null","73","stimuli/woods_26.jpg","","","","",""
"","","","","","image-keyboard-response","88","2.0.0","98475","p1mzf32delq","trex","null","stimuli/bridge_19.jpg","null","bridge","F","non-repeat","null","74","stimuli/bridge_19.jpg","","","","",""
"","","","","","image-keyboard-response","89","2.0.0","99478","p1mzf32delq","trex","null","stimuli/bar_67.jpg","null","bar","J","non-repeat","null","75","stimuli/bar_67.jpg","","","","",""
"","","","","","image-keyboard-response","90","2.0.0","100482","p1mzf32delq","trex","null","stimuli/gym_52.jpg","null","gym","K","non-repeat","null","76","stimuli/gym_52.jpg","","","","",""
"","","","","","image-keyboard-response","91","2.0.0","101486","p1mzf32delq","trex","null","stimuli/desert_50.jpg","null","desert","L","non-repeat","null","77","stimuli/desert_50.jpg","","","","",""
"","","","","","image-keyboard-response","92","2.0.0","102490","p1mzf32delq","trex","null","stimuli/stream_42.jpg","null","stream","G","non-repeat","null","78","stimuli/stream_42.jpg","","","","",""
"","","","","","image-keyboard-response","93","2.0.0","103495","p1mzf32delq","trex","null","stimuli/street_8.jpg","null","street","H","non-repeat","null","79","stimuli/street_8.jpg","","","","",""
"","","","","","image-keyboard-response","94","2.0.0","104498","p1mzf32delq","trex","null","stimuli/playground_10.jpg","null","playground","I","non-repeat","null","80","stimuli/playground_10.jpg","","","","",""
"","","","","","image-keyboard-response","95","2.0.0","105502","p1mzf32delq","trex","null","stimuli/coast_54.jpg","null","coast","D","non-repeat","null","81","stimuli/coast_54.jpg","","","","",""
"","","","","","image-keyboard-response","96","2.0.0","106506","p1mzf32delq","trex","null","stimuli/woods_26.jpg","null","woods","E","non-repeat","null","82","stimuli/woods_26.jpg","","","","",""
"","","","","","image-keyboard-response","97","2.0.0","107511","p1mzf32delq","trex","null","stimuli/bridge_19.jpg","null","bridge","F","non-repeat","null","83","stimuli/bridge_19.jpg","","","","",""
"","","","","","image-keyboard-response","98","2.0.0","108514","p1mzf32delq","trex","null","stimuli/stream_42.jpg","null","stream","G","non-repeat","null","84","stimuli/stream_42.jpg","","","","",""
"","","","","","image-keyboard-response","99","2.0.0","109517","p1mzf32delq","trex","null","stimuli/street_8.jpg","null","street","H","non-repeat","null","85","stimuli/street_8.jpg","","","","",""
"","","","","","image-keyboard-response","100","2.0.0","110522","p1mzf32delq","trex","null","stimuli/playground_10.jpg","null","playground","I","non-repeat","null","86","stimuli/playground_10.jpg","","","","",""
"","","","","","image-keyboard-response","101","2.0.0","111525","p1mzf32delq","trex","null","stimuli/bathroom_37.jpg","null","bathroom","A","non-repeat","null","87","stimuli/bathroom_37.jpg","","","","",""
"","","","","","image-keyboard-response","102","2.0.0","112529","p1mzf32delq","trex","null","stimuli/kitchen_50.jpg","null","kitchen","B","non-repeat","null","88","stimuli/kitchen_50.jpg","","","","",""
"","","","","","image-keyboard-response","103","2.0.0","113534","p1mzf32delq","trex","null","stimuli/field_54.jpg","null","field","C","non-repeat","null","89","stimuli/field_54.jpg","","","","",""
"","","","","","image-keyboard-response","104","2.0.0","114538","p1mzf32delq","trex","null","stimuli/bar_67.jpg","null","bar","J","non-repeat","null","90","stimuli/bar_67.jpg","","","","",""
"","","","","","image-keyboard-response","105","2.0.0","115542","p1mzf32delq","trex","null","stimuli/gym_52.jpg","null","gym","K","non-repeat","null","91","stimuli/gym_52.jpg","","","","",""
"","","","","","image-keyboard-response","106","2.0.0","116546","p1mzf32delq","trex","null","stimuli/desert_50.jpg","null","desert","L","non-repeat","null","92","stimuli/desert_50.jpg","","","","",""
"","","","","","image-keyboard-response","107","2.0.0","117554","p1mzf32delq","trex","null","stimuli/bathroom_37.jpg","null","bathroom","A","non-repeat","null","93","stimuli/bathroom_37.jpg","","","","",""
"","","","","","image-keyboard-response","108","2.0.0","118559","p1mzf32delq","trex","null","stimuli/kitchen_50.jpg","null","kitchen","B","non-repeat","null","94","stimuli/kitchen_50.jpg","","","","",""
"","","","","","image-keyboard-response","109","2.0.0","119562","p1mzf32delq","trex","null","stimuli/field_54.jpg","null","field","C","non-repeat","null","95","stimuli/field_54.jpg","","","","",""
"","","","","","image-keyboard-response","110","2.0.0","120565","p1mzf32delq","trex","531","stimuli/field_54.jpg"," ","field","C","repeat"," ","95","","","","","",""
"","","","","","image-keyboard-response","111","2.0.0","121568","p1mzf32delq","trex","null","stimuli/stream_42.jpg","null","stream","G","non-repeat","null","96","stimuli/stream_42.jpg","","","","",""
"","","","","","image-keyboard-response","112","2.0.0","122572","p1mzf32delq","trex","365","stimuli/stream_42.jpg"," ","stream","G","repeat"," ","96","","","","","",""
"","","","","","image-keyboard-response","113","2.0.0","123575","p1mzf32delq","trex","null","stimuli/street_8.jpg","null","street","H","non-repeat","null","97","stimuli/street_8.jpg","","","","",""
"","","","","","image-keyboard-response","114","2.0.0","124579","p1mzf32delq","trex","null","stimuli/playground_10.jpg","null","playground","I","non-repeat","null","98","stimuli/playground_10.jpg","","","","",""
"","","","","","image-keyboard-response","115","2.0.0","125583","p1mzf32delq","trex","null","stimuli/bar_67.jpg","null","bar","J","non-repeat","null","99","stimuli/bar_67.jpg","","","","",""
"","","","","","image-keyboard-response","116","2.0.0","126586","p1mzf32delq","trex","null","stimuli/bar_67.jpg","null","bar","J","repeat"," ","99","","","","","",""
"","","","","","image-keyboard-response","117","2.0.0","127591","p1mzf32delq","trex","null","stimuli/gym_52.jpg","null","gym","K","non-repeat","null","100","stimuli/gym_52.jpg","","","","",""
"","","","","","image-keyboard-response","118","2.0.0","128595","p1mzf32delq","trex","null","stimuli/desert_50.jpg","null","desert","L","non-repeat","null","101","stimuli/desert_50.jpg","","","","",""
"","","","","","image-keyboard-response","119","2.0.0","129599","p1mzf32delq","trex","null","stimuli/bathroom_37.jpg","null","bathroom","A","non-repeat","null","102","stimuli/bathroom_37.jpg","","","","",""
"","","","","","image-keyboard-response","120","2.0.0","130603","p1mzf32delq","trex","null","stimuli/kitchen_50.jpg","null","kitchen","B","non-repeat","null","103","stimuli/kitchen_50.jpg","","","","",""
"","","","","","image-keyboard-response","121","2.0.0","131607","p1mzf32delq","trex","null","stimuli/field_54.jpg","null","field","C","non-repeat","null","104","stimuli/field_54.jpg","","","","",""
"","","","","","image-keyboard-response","122","2.0.0","132612","p1mzf32delq","trex","null","stimuli/bar_67.jpg","null","bar","J","non-repeat","null","105","stimuli/bar_67.jpg","","","","",""
"","","","","","image-keyboard-response","123","2.0.0","133615","p1mzf32delq","trex","null","stimuli/gym_52.jpg","null","gym","K","non-repeat","null","106","stimuli/gym_52.jpg","","","","",""
"","","","","","image-keyboard-response","124","2.0.0","134619","p1mzf32delq","trex","null","stimuli/desert_50.jpg","null","desert","L","non-repeat","null","107","stimuli/desert_50.jpg","","","","",""
"","","","","","image-keyboard-response","125","2.0.0","135623","p1mzf32delq","trex","null","stimuli/coast_54.jpg","null","coast","D","non-repeat","null","108","stimuli/coast_54.jpg","","","","",""
"","","","","","image-keyboard-response","126","2.0.0","136626","p1mzf32delq","trex","null","stimuli/woods_26.jpg","null","woods","E","non-repeat","null","109","stimuli/woods_26.jpg","","","","",""
"","","","","","image-keyboard-response","127","2.0.0","137631","p1mzf32delq","trex","null","stimuli/bridge_19.jpg","null","bridge","F","non-repeat","null","110","stimuli/bridge_19.jpg","","","","",""
"","","","","","image-keyboard-response","128","2.0.0","138634","p1mzf32delq","trex","null","stimuli/stream_42.jpg","null","stream","G","non-repeat","null","111","stimuli/stream_42.jpg","","","","",""
"","","","","","image-keyboard-response","129","2.0.0","139638","p1mzf32delq","trex","null","stimuli/street_8.jpg","null","street","H","non-repeat","null","112","stimuli/street_8.jpg","","","","",""
"","","","","","image-keyboard-response","130","2.0.0","140643","p1mzf32delq","trex","null","stimuli/playground_10.jpg","null","playground","I","non-repeat","null","113","stimuli/playground_10.jpg","","","","",""
"","","","","","image-keyboard-response","131","2.0.0","141647","p1mzf32delq","trex","null","stimuli/bathroom_37.jpg","null","bathroom","A","non-repeat","null","114","stimuli/bathroom_37.jpg","","","","",""
"","","","","","image-keyboard-response","132","2.0.0","142651","p1mzf32delq","trex","null","stimuli/kitchen_50.jpg","null","kitchen","B","non-repeat","null","115","stimuli/kitchen_50.jpg","","","","",""
"","","","","","image-keyboard-response","133","2.0.0","143655","p1mzf32delq","trex","null","stimuli/field_54.jpg","null","field","C","non-repeat","null","116","stimuli/field_54.jpg","","","","",""
"","","","","","image-keyboard-response","134","2.0.0","144658","p1mzf32delq","trex","null","stimuli/coast_54.jpg","null","coast","D","non-repeat","null","117","stimuli/coast_54.jpg","","","","",""
"","","","","","image-keyboard-response","135","2.0.0","145662","p1mzf32delq","trex","null","stimuli/woods_26.jpg","null","woods","E","non-repeat","null","118","stimuli/woods_26.jpg","","","","",""
"","","","","","image-keyboard-response","136","2.0.0","146666","p1mzf32delq","trex","null","stimuli/bridge_19.jpg","null","bridge","F","non-repeat","null","119","stimuli/bridge_19.jpg","","","","",""
"","","","","","image-keyboard-response","137","2.0.0","147670","p1mzf32delq","trex","null","stimuli/stream_42.jpg","null","stream","G","non-repeat","null","120","stimuli/stream_42.jpg","","","","",""
"","","","","","image-keyboard-response","138","2.0.0","148674","p1mzf32delq","trex","null","stimuli/street_8.jpg","null","street","H","non-repeat","null","121","stimuli/street_8.jpg","","","","",""
"","","","","","image-keyboard-response","139","2.0.0","149678","p1mzf32delq","trex","null","stimuli/playground_10.jpg","null","playground","I","non-repeat","null","122","stimuli/playground_10.jpg","","","","",""
"","","","","","image-keyboard-response","140","2.0.0","150682","p1mzf32delq","trex","null","stimuli/bar_67.jpg","null","bar","J","non-repeat","null","123","stimuli/bar_67.jpg","","","","",""
"","","","","","image-keyboard-response","141","2.0.0","151686","p1mzf32delq","trex","null","stimuli/gym_52.jpg","null","gym","K","non-repeat","null","124","stimuli/gym_52.jpg","","","","",""
"","","","","","image-keyboard-response","142","2.0.0","152690","p1mzf32delq","trex","null","stimuli/desert_50.jpg","null","desert","L","non-repeat","null","125","stimuli/desert_50.jpg","","","","",""
"","","","","","image-keyboard-response","143","2.0.0","153694","p1mzf32delq","trex","null","stimuli/bathroom_37.jpg","null","bathroom","A","non-repeat","null","126","stimuli/bathroom_37.jpg","","","","",""
"","","","","","image-keyboard-response","144","2.0.0","154698","p1mzf32delq","trex","null","stimuli/kitchen_50.jpg","null","kitchen","B","non-repeat","null","127","stimuli/kitchen_50.jpg","","","","",""
"","","","","","image-keyboard-response","145","2.0.0","155702","p1mzf32delq","trex","null","stimuli/field_54.jpg","null","field","C","non-repeat","null","128","stimuli/field_54.jpg","","","","",""
"","","","","","image-keyboard-response","146","2.0.0","156705","p1mzf32delq","trex","null","stimuli/bar_67.jpg","null","bar","J","non-repeat","null","129","stimuli/bar_67.jpg","","","","",""
"","","","","","image-keyboard-response","147","2.0.0","157709","p1mzf32delq","trex","null","stimuli/bar_67.jpg","null","bar","J","repeat"," ","129","","","","","",""
"","","","","","image-keyboard-response","148","2.0.0","158714","p1mzf32delq","trex","null","stimuli/gym_52.jpg","null","gym","K","non-repeat","null","130","stimuli/gym_52.jpg","","","","",""
"","","","","","image-keyboard-response","149","2.0.0","159718","p1mzf32delq","trex","null","stimuli/desert_50.jpg","null","desert","L","non-repeat","null","131","stimuli/desert_50.jpg","","","","",""
"","","","","","image-keyboard-response","150","2.0.0","160722","p1mzf32delq","trex","null","stimuli/bathroom_37.jpg","null","bathroom","A","non-repeat","null","132","stimuli/bathroom_37.jpg","","","","",""
"","","","","","image-keyboard-response","151","2.0.0","161726","p1mzf32delq","trex","null","stimuli/kitchen_50.jpg","null","kitchen","B","non-repeat","null","133","stimuli/kitchen_50.jpg","","","","",""
"","","","","","image-keyboard-response","152","2.0.0","162730","p1mzf32delq","trex","null","stimuli/field_54.jpg","null","field","C","non-repeat","null","134","stimuli/field_54.jpg","","","","",""
"","","","","","image-keyboard-response","153","2.0.0","163734","p1mzf32delq","trex","null","stimuli/coast_54.jpg","null","coast","D","non-repeat","null","135","stimuli/coast_54.jpg","","","","",""
"","","","","","image-keyboard-response","154","2.0.0","164738","p1mzf32delq","trex","null","stimuli/woods_26.jpg","null","woods","E","non-repeat","null","136","stimuli/woods_26.jpg","","","","",""
"","","","","","image-keyboard-response","155","2.0.0","165743","p1mzf32delq","trex","null","stimuli/bridge_19.jpg","null","bridge","F","non-repeat","null","137","stimuli/bridge_19.jpg","","","","",""
"","","","","","image-keyboard-response","156","2.0.0","166746","p1mzf32delq","trex","null","stimuli/bar_67.jpg","null","bar","J","non-repeat","null","138","stimuli/bar_67.jpg","","","","",""
"","","","","","image-keyboard-response","157","2.0.0","167750","p1mzf32delq","trex","null","stimuli/gym_52.jpg","null","gym","K","non-repeat","null","139","stimuli/gym_52.jpg","","","","",""
"","","","","","image-keyboard-response","158","2.0.0","168754","p1mzf32delq","trex","null","stimuli/desert_50.jpg","null","desert","L","non-repeat","null","140","stimuli/desert_50.jpg","","","","",""
"","","","","","image-keyboard-response","159","2.0.0","169758","p1mzf32delq","trex","null","stimuli/stream_42.jpg","null","stream","G","non-repeat","null","141","stimuli/stream_42.jpg","","","","",""
"","","","","","image-keyboard-response","160","2.0.0","170761","p1mzf32delq","trex","null","stimuli/street_8.jpg","null","street","H","non-repeat","null","142","stimuli/street_8.jpg","","","","",""
"","","","","","image-keyboard-response","161","2.0.0","171766","p1mzf32delq","trex","null","stimuli/playground_10.jpg","null","playground","I","non-repeat","null","143","stimuli/playground_10.jpg","","","","",""
"","","","","","image-keyboard-response","162","2.0.0","172770","p1mzf32delq","trex","517","stimuli/playground_10.jpg"," ","playground","I","repeat"," ","143","","","","","",""
"","","","","","image-keyboard-response","163","2.0.0","173774","p1mzf32delq","trex","null","stimuli/coast_54.jpg","null","coast","D","non-repeat","null","144","stimuli/coast_54.jpg","","","","",""
"","","","","","image-keyboard-response","164","2.0.0","174778","p1mzf32delq","trex","null","stimuli/woods_26.jpg","null","woods","E","non-repeat","null","145","stimuli/woods_26.jpg","","","","",""
"","","","","","image-keyboard-response","165","2.0.0","175782","p1mzf32delq","trex","null","stimuli/bridge_19.jpg","null","bridge","F","non-repeat","null","146","stimuli/bridge_19.jpg","","","","",""
"","","","","","image-keyboard-response","166","2.0.0","176786","p1mzf32delq","trex","null","stimuli/bar_67.jpg","null","bar","J","non-repeat","null","147","stimuli/bar_67.jpg","","","","",""
"","","","","","image-keyboard-response","167","2.0.0","177790","p1mzf32delq","trex","null","stimuli/gym_52.jpg","null","gym","K","non-repeat","null","148","stimuli/gym_52.jpg","","","","",""
"","","","","","image-keyboard-response","168","2.0.0","178795","p1mzf32delq","trex","null","stimuli/desert_50.jpg","null","desert","L","non-repeat","null","149","stimuli/desert_50.jpg","","","","",""
"","","","","","image-keyboard-response","169","2.0.0","179799","p1mzf32delq","trex","null","stimuli/stream_42.jpg","null","stream","G","non-repeat","null","150","stimuli/stream_42.jpg","","","","",""
"","","","","","image-keyboard-response","170","2.0.0","180803","p1mzf32delq","trex","447","stimuli/stream_42.jpg"," ","stream","G","repeat"," ","150","","","","","",""
"","","","","","image-keyboard-response","171","2.0.0","181806","p1mzf32delq","trex","null","stimuli/street_8.jpg","null","street","H","non-repeat","null","151","stimuli/street_8.jpg","","","","",""
"","","","","","image-keyboard-response","172","2.0.0","182809","p1mzf32delq","trex","null","stimuli/playground_10.jpg","null","playground","I","non-repeat","null","152","stimuli/playground_10.jpg","","","","",""
"","","","","","image-keyboard-response","173","2.0.0","183812","p1mzf32delq","trex","null","stimuli/bar_67.jpg","null","bar","J","non-repeat","null","153","stimuli/bar_67.jpg","","","","",""
"","","","","","image-keyboard-response","174","2.0.0","184816","p1mzf32delq","trex","null","stimuli/gym_52.jpg","null","gym","K","non-repeat","null","154","stimuli/gym_52.jpg","","","","",""
"","","","","","image-keyboard-response","175","2.0.0","185820","p1mzf32delq","trex","null","stimuli/desert_50.jpg","null","desert","L","non-repeat","null","155","stimuli/desert_50.jpg","","","","",""
"","","","","","image-keyboard-response","176","2.0.0","186824","p1mzf32delq","trex","null","stimuli/coast_54.jpg","null","coast","D","non-repeat","null","156","stimuli/coast_54.jpg","","","","",""
"","","","","","image-keyboard-response","177","2.0.0","187829","p1mzf32delq","trex","null","stimuli/coast_54.jpg","null","coast","D","repeat"," ","156","","","","","",""
"","","","","","image-keyboard-response","178","2.0.0","188833","p1mzf32delq","trex","null","stimuli/woods_26.jpg","null","woods","E","non-repeat","null","157","stimuli/woods_26.jpg","","","","",""
"","","","","","image-keyboard-response","179","2.0.0","189835","p1mzf32delq","trex","null","stimuli/bridge_19.jpg","null","bridge","F","non-repeat","null","158","stimuli/bridge_19.jpg","","","","",""
"","","","","","image-keyboard-response","180","2.0.0","190839","p1mzf32delq","trex","465","stimuli/bridge_19.jpg"," ","bridge","F","repeat"," ","158","","","","","",""
"","","","","","image-keyboard-response","181","2.0.0","191843","p1mzf32delq","trex","null","stimuli/stream_42.jpg","null","stream","G","non-repeat","null","159","stimuli/stream_42.jpg","","","","",""
"","","","","","image-keyboard-response","182","2.0.0","192847","p1mzf32delq","trex","null","stimuli/street_8.jpg","null","street","H","non-repeat","null","160","stimuli/street_8.jpg","","","","",""
"","","","","","image-keyboard-response","183","2.0.0","193851","p1mzf32delq","trex","null","stimuli/playground_10.jpg","null","playground","I","non-repeat","null","161","stimuli/playground_10.jpg","","","","",""
"","","","","","image-keyboard-response","184","2.0.0","194855","p1mzf32delq","trex","null","stimuli/bar_67.jpg","null","bar","J","non-repeat","null","162","stimuli/bar_67.jpg","","","","",""
"","","","","","image-keyboard-response","185","2.0.0","195858","p1mzf32delq","trex","null","stimuli/gym_52.jpg","null","gym","K","non-repeat","null","163","stimuli/gym_52.jpg","","","","",""
"","","","","","image-keyboard-response","186","2.0.0","196862","p1mzf32delq","trex","null","stimuli/desert_50.jpg","null","desert","L","non-repeat","null","164","stimuli/desert_50.jpg","","","","",""
"","","","","","image-keyboard-response","187","2.0.0","197865","p1mzf32delq","trex","null","stimuli/coast_54.jpg","null","coast","D","non-repeat","null","165","stimuli/coast_54.jpg","","","","",""
"","","","","","image-keyboard-response","188","2.0.0","198868","p1mzf32delq","trex","508","stimuli/coast_54.jpg"," ","coast","D","repeat"," ","165","","","","","",""
"","","","","","image-keyboard-response","189","2.0.0","199872","p1mzf32delq","trex","null","stimuli/woods_26.jpg","null","woods","E","non-repeat","null","166","stimuli/woods_26.jpg","","","","",""
"","","","","","image-keyboard-response","190","2.0.0","200875","p1mzf32delq","trex","null","stimuli/bridge_19.jpg","null","bridge","F","non-repeat","null","167","stimuli/bridge_19.jpg","","","","",""
"","","","","","image-keyboard-response","191","2.0.0","201879","p1mzf32delq","trex","null","stimuli/stream_42.jpg","null","stream","G","non-repeat","null","168","stimuli/stream_42.jpg","","","","",""
"","","","","","image-keyboard-response","192","2.0.0","202883","p1mzf32delq","trex","null","stimuli/street_8.jpg","null","street","H","non-repeat","null","169","stimuli/street_8.jpg","","","","",""
"","","","","","image-keyboard-response","193","2.0.0","203888","p1mzf32delq","trex","null","stimuli/playground_10.jpg","null","playground","I","non-repeat","null","170","stimuli/playground_10.jpg","","","","",""
"","","","","","image-keyboard-response","194","2.0.0","204891","p1mzf32delq","trex","null","stimuli/bar_67.jpg","null","bar","J","non-repeat","null","171","stimuli/bar_67.jpg","","","","",""
"","","","","","image-keyboard-response","195","2.0.0","205895","p1mzf32delq","trex","null","stimuli/bar_67.jpg","null","bar","J","repeat"," ","171","","","","","",""
"","","","","","image-keyboard-response","196","2.0.0","206898","p1mzf32delq","trex","null","stimuli/gym_52.jpg","null","gym","K","non-repeat","null","172","stimuli/gym_52.jpg","","","","",""
"","","","","","image-keyboard-response","197","2.0.0","207902","p1mzf32delq","trex","null","stimuli/desert_50.jpg","null","desert","L","non-repeat","null","173","stimuli/desert_50.jpg","","","","",""
"","","","","","image-keyboard-response","198","2.0.0","208905","p1mzf32delq","trex","null","stimuli/bathroom_37.jpg","null","bathroom","A","non-repeat","null","174","stimuli/bathroom_37.jpg","","","","",""
"","","","","","image-keyboard-response","199","2.0.0","209909","p1mzf32delq","trex","null","stimuli/kitchen_50.jpg","null","kitchen","B","non-repeat","null","175","stimuli/kitchen_50.jpg","","","","",""
"","","","","","image-keyboard-response","200","2.0.0","210913","p1mzf32delq","trex","null","stimuli/field_54.jpg","null","field","C","non-repeat","null","176","stimuli/field_54.jpg","","","","",""
"","","","","","image-keyboard-response","201","2.0.0","211917","p1mzf32delq","trex","null","stimuli/coast_54.jpg","null","coast","D","non-repeat","null","177","stimuli/coast_54.jpg","","","","",""
"","","","","","image-keyboard-response","202","2.0.0","212920","p1mzf32delq","trex","438","stimuli/coast_54.jpg"," ","coast","D","repeat"," ","177","","","","","",""
"","","","","","image-keyboard-response","203","2.0.0","213924","p1mzf32delq","trex","null","stimuli/woods_26.jpg","null","woods","E","non-repeat","null","178","stimuli/woods_26.jpg","","","","",""
"","","","","","image-keyboard-response","204","2.0.0","214927","p1mzf32delq","trex","null","stimuli/bridge_19.jpg","null","bridge","F","non-repeat","null","179","stimuli/bridge_19.jpg","","","","",""
"","","","","","image-keyboard-response","205","2.0.0","215932","p1mzf32delq","trex","null","stimuli/bar_67.jpg","null","bar","J","non-repeat","null","180","stimuli/bar_67.jpg","","","","",""
"","","","","","image-keyboard-response","206","2.0.0","216936","p1mzf32delq","trex","null","stimuli/bar_67.jpg","null","bar","J","repeat"," ","180","","","","","",""
"","","","","","image-keyboard-response","207","2.0.0","217940","p1mzf32delq","trex","null","stimuli/gym_52.jpg","null","gym","K","non-repeat","null","181","stimuli/gym_52.jpg","","","","",""
"","","","","","image-keyboard-response","208","2.0.0","218944","p1mzf32delq","trex","null","stimuli/desert_50.jpg","null","desert","L","non-repeat","null","182","stimuli/desert_50.jpg","","","","",""
"","","","","","image-keyboard-response","209","2.0.0","219948","p1mzf32delq","trex","null","stimuli/desert_50.jpg","null","desert","L","repeat"," ","182","","","","","",""
"","","","","","image-keyboard-response","210","2.0.0","220952","p1mzf32delq","trex","null","stimuli/coast_54.jpg","null","coast","D","non-repeat","null","183","stimuli/coast_54.jpg","","","","",""
"","","","","","image-keyboard-response","211","2.0.0","221956","p1mzf32delq","trex","null","stimuli/woods_26.jpg","null","woods","E","non-repeat","null","184","stimuli/woods_26.jpg","","","","",""
"","","","","","image-keyboard-response","212","2.0.0","222959","p1mzf32delq","trex","null","stimuli/bridge_19.jpg","null","bridge","F","non-repeat","null","185","stimuli/bridge_19.jpg","","","","",""
"","","","","","image-keyboard-response","213","2.0.0","223962","p1mzf32delq","trex","null","stimuli/stream_42.jpg","null","stream","G","non-repeat","null","186","stimuli/stream_42.jpg","","","","",""
"","","","","","image-keyboard-response","214","2.0.0","224966","p1mzf32delq","trex","null","stimuli/street_8.jpg","null","street","H","non-repeat","null","187","stimuli/street_8.jpg","","","","",""
"","","","","","image-keyboard-response","215","2.0.0","225970","p1mzf32delq","trex","null","stimuli/playground_10.jpg","null","playground","I","non-repeat","null","188","stimuli/playground_10.jpg","","","","",""
"","","","","","image-keyboard-response","216","2.0.0","226974","p1mzf32delq","trex","null","stimuli/coast_54.jpg","null","coast","D","non-repeat","null","189","stimuli/coast_54.jpg","","","","",""
"","","","","","image-keyboard-response","217","2.0.0","227978","p1mzf32delq","trex","429","stimuli/coast_54.jpg"," ","coast","D","repeat"," ","189","","","","","",""
"","","","","","image-keyboard-response","218","2.0.0","228981","p1mzf32delq","trex","null","stimuli/woods_26.jpg","null","woods","E","non-repeat","null","190","stimuli/woods_26.jpg","","","","",""
"","","","","","image-keyboard-response","219","2.0.0","229985","p1mzf32delq","trex","null","stimuli/bridge_19.jpg","null","bridge","F","non-repeat","null","191","stimuli/bridge_19.jpg","","","","",""
"","","","","","image-keyboard-response","220","2.0.0","230989","p1mzf32delq","trex","null","stimuli/bathroom_37.jpg","null","bathroom","A","non-repeat","null","192","stimuli/bathroom_37.jpg","","","","",""
"","","","","","image-keyboard-response","221","2.0.0","231994","p1mzf32delq","trex","null","stimuli/kitchen_50.jpg","null","kitchen","B","non-repeat","null","193","stimuli/kitchen_50.jpg","","","","",""
"","","","","","image-keyboard-response","222","2.0.0","232998","p1mzf32delq","trex","null","stimuli/field_54.jpg","null","field","C","non-repeat","null","194","stimuli/field_54.jpg","","","","",""
"","","","","","image-keyboard-response","223","2.0.0","234002","p1mzf32delq","trex","null","stimuli/coast_54.jpg","null","coast","D","non-repeat","null","195","stimuli/coast_54.jpg","","","","",""
"","","","","","image-keyboard-response","224","2.0.0","235006","p1mzf32delq","trex","null","stimuli/woods_26.jpg","null","woods","E","non-repeat","null","196","stimuli/woods_26.jpg","","","","",""
"","","","","","image-keyboard-response","225","2.0.0","236010","p1mzf32delq","trex","null","stimuli/bridge_19.jpg","null","bridge","F","non-repeat","null","197","stimuli/bridge_19.jpg","","","","",""
"","","","","","image-keyboard-response","226","2.0.0","237014","p1mzf32delq","trex","null","stimuli/bar_67.jpg","null","bar","J","non-repeat","null","198","stimuli/bar_67.jpg","","","","",""
"","","","","","image-keyboard-response","227","2.0.0","238018","p1mzf32delq","trex","null","stimuli/gym_52.jpg","null","gym","K","non-repeat","null","199","stimuli/gym_52.jpg","","","","",""
"","","","","","image-keyboard-response","228","2.0.0","239021","p1mzf32delq","trex","null","stimuli/desert_50.jpg","null","desert","L","non-repeat","null","200","stimuli/desert_50.jpg","","","","",""
"","","","","","image-keyboard-response","229","2.0.0","240025","p1mzf32delq","trex","null","stimuli/stream_42.jpg","null","stream","G","non-repeat","null","201","stimuli/stream_42.jpg","","","","",""
"","","","","","image-keyboard-response","230","2.0.0","241029","p1mzf32delq","trex","null","stimuli/street_8.jpg","null","street","H","non-repeat","null","202","stimuli/street_8.jpg","","","","",""
"","","","","","image-keyboard-response","231","2.0.0","242034","p1mzf32delq","trex","null","stimuli/playground_10.jpg","null","playground","I","non-repeat","null","203","stimuli/playground_10.jpg","","","","",""
"","","","","","image-keyboard-response","232","2.0.0","243037","p1mzf32delq","trex","null","stimuli/coast_54.jpg","null","coast","D","non-repeat","null","204","stimuli/coast_54.jpg","","","","",""
"","","","","","image-keyboard-response","233","2.0.0","244041","p1mzf32delq","trex","512","stimuli/coast_54.jpg"," ","coast","D","repeat"," ","204","","","","","",""
"","","","","","image-keyboard-response","234","2.0.0","245046","p1mzf32delq","trex","null","stimuli/woods_26.jpg","null","woods","E","non-repeat","null","205","stimuli/woods_26.jpg","","","","",""
"","","","","","image-keyboard-response","235","2.0.0","246050","p1mzf32delq","trex","null","stimuli/bridge_19.jpg","null","bridge","F","non-repeat","null","206","stimuli/bridge_19.jpg","","","","",""
"","","","","","image-keyboard-response","236","2.0.0","247053","p1mzf32delq","trex","null","stimuli/bridge_19.jpg","null","bridge","F","repeat"," ","206","","","","","",""
"","","","","","image-keyboard-response","237","2.0.0","248058","p1mzf32delq","trex","null","stimuli/stream_42.jpg","null","stream","G","non-repeat","null","207","stimuli/stream_42.jpg","","","","",""
"","","","","","image-keyboard-response","238","2.0.0","249062","p1mzf32delq","trex","null","stimuli/street_8.jpg","null","street","H","non-repeat","null","208","stimuli/street_8.jpg","","","","",""
"","","","","","image-keyboard-response","239","2.0.0","250066","p1mzf32delq","trex","null","stimuli/playground_10.jpg","null","playground","I","non-repeat","null","209","stimuli/playground_10.jpg","","","","",""
"","","","","","image-keyboard-response","240","2.0.0","251070","p1mzf32delq","trex","null","stimuli/coast_54.jpg","null","coast","D","non-repeat","null","210","stimuli/coast_54.jpg","","","","",""
"","","","","","image-keyboard-response","241","2.0.0","252073","p1mzf32delq","trex","null","stimuli/woods_26.jpg","null","woods","E","non-repeat","null","211","stimuli/woods_26.jpg","","","","",""
"","","","","","image-keyboard-response","242","2.0.0","253077","p1mzf32delq","trex","null","stimuli/bridge_19.jpg","null","bridge","F","non-repeat","null","212","stimuli/bridge_19.jpg","","","","",""
"","","","","","image-keyboard-response","243","2.0.0","254080","p1mzf32delq","trex","null","stimuli/bar_67.jpg","null","bar","J","non-repeat","null","213","stimuli/bar_67.jpg","","","","",""
"","","","","","image-keyboard-response","244","2.0.0","255085","p1mzf32delq","trex","null","stimuli/gym_52.jpg","null","gym","K","non-repeat","null","214","stimuli/gym_52.jpg","","","","",""
"","","","","","image-keyboard-response","245","2.0.0","256089","p1mzf32delq","trex","null","stimuli/desert_50.jpg","null","desert","L","non-repeat","null","215","stimuli/desert_50.jpg","","","","",""
"","","","","","image-keyboard-response","246","2.0.0","257093","p1mzf32delq","trex","null","stimuli/stream_42.jpg","null","stream","G","non-repeat","null","216","stimuli/stream_42.jpg","","","","",""
"","","","","","image-keyboard-response","247","2.0.0","258097","p1mzf32delq","trex","null","stimuli/street_8.jpg","null","street","H","non-repeat","null","217","stimuli/street_8.jpg","","","","",""
"","","","","","image-keyboard-response","248","2.0.0","259101","p1mzf32delq","trex","null","stimuli/playground_10.jpg","null","playground","I","non-repeat","null","218","stimuli/playground_10.jpg","","","","",""
"","","","","","image-keyboard-response","249","2.0.0","260105","p1mzf32delq","trex","null","stimuli/bar_67.jpg","null","bar","J","non-repeat","null","219","stimuli/bar_67.jpg","","","","",""
"","","","","","image-keyboard-response","250","2.0.0","261108","p1mzf32delq","trex","null","stimuli/gym_52.jpg","null","gym","K","non-repeat","null","220","stimuli/gym_52.jpg","","","","",""
"","","","","","image-keyboard-response","251","2.0.0","262113","p1mzf32delq","trex","null","stimuli/desert_50.jpg","null","desert","L","non-repeat","null","221","stimuli/desert_50.jpg","","","","",""
"","","","","","image-keyboard-response","252","2.0.0","263117","p1mzf32delq","trex","null","stimuli/desert_50.jpg","null","desert","L","repeat"," ","221","","","","","",""
"","","","","","image-keyboard-response","253","2.0.0","264121","p1mzf32delq","trex","null","stimuli/stream_42.jpg","null","stream","G","non-repeat","null","222","stimuli/stream_42.jpg","","","","",""
"","","","","","image-keyboard-response","254","2.0.0","265123","p1mzf32delq","trex","null","stimuli/street_8.jpg","null","street","H","non-repeat","null","223","stimuli/street_8.jpg","","","","",""
"","","","","","image-keyboard-response","255","2.0.0","266128","p1mzf32delq","trex","null","stimuli/playground_10.jpg","null","playground","I","non-repeat","null","224","stimuli/playground_10.jpg","","","","",""
"","","","","","image-keyboard-response","256","2.0.0","267132","p1mzf32delq","trex","null","stimuli/playground_10.jpg","null","playground","I","repeat"," ","224","","","","","",""
"","","","","","image-keyboard-response","257","2.0.0","268136","p1mzf32delq","trex","null","stimuli/coast_54.jpg","null","coast","D","non-repeat","null","225","stimuli/coast_54.jpg","","","","",""
"","","","","","image-keyboard-response","258","2.0.0","269139","p1mzf32delq","trex","null","stimuli/woods_26.jpg","null","woods","E","non-repeat","null","226","stimuli/woods_26.jpg","","","","",""
"","","","","","image-keyboard-response","259","2.0.0","270144","p1mzf32delq","trex","null","stimuli/bridge_19.jpg","null","bridge","F","non-repeat","null","227","stimuli/bridge_19.jpg","","","","",""
"","","","","","image-keyboard-response","260","2.0.0","271148","p1mzf32delq","trex","null","stimuli/stream_42.jpg","null","stream","G","non-repeat","null","228","stimuli/stream_42.jpg","","","","",""
"","","","","","image-keyboard-response","261","2.0.0","272152","p1mzf32delq","trex","null","stimuli/street_8.jpg","null","street","H","non-repeat","null","229","stimuli/street_8.jpg","","","","",""
"","","","","","image-keyboard-response","262","2.0.0","273156","p1mzf32delq","trex","null","stimuli/playground_10.jpg","null","playground","I","non-repeat","null","230","stimuli/playground_10.jpg","","","","",""
"","","","","","image-keyboard-response","263","2.0.0","274160","p1mzf32delq","trex","null","stimuli/bathroom_37.jpg","null","bathroom","A","non-repeat","null","231","stimuli/bathroom_37.jpg","","","","",""
"","","","","","image-keyboard-response","264","2.0.0","275164","p1mzf32delq","trex","520","stimuli/bathroom_37.jpg"," ","bathroom","A","repeat"," ","231","","","","","",""
"","","","","","image-keyboard-response","265","2.0.0","276167","p1mzf32delq","trex","null","stimuli/kitchen_50.jpg","null","kitchen","B","non-repeat","null","232","stimuli/kitchen_50.jpg","","","","",""
"","","","","","image-keyboard-response","266","2.0.0","277171","p1mzf32delq","trex","null","stimuli/field_54.jpg","null","field","C","non-repeat","null","233","stimuli/field_54.jpg","","","","",""
"","","","","","image-keyboard-response","267","2.0.0","278175","p1mzf32delq","trex","null","stimuli/coast_54.jpg","null","coast","D","non-repeat","null","234","stimuli/coast_54.jpg","","","","",""
"","","","","","image-keyboard-response","268","2.0.0","279179","p1mzf32delq","trex","null","stimuli/woods_26.jpg","null","woods","E","non-repeat","null","235","stimuli/woods_26.jpg","","","","",""
"","","","","","image-keyboard-response","269","2.0.0","280183","p1mzf32delq","trex","null","stimuli/bridge_19.jpg","null","bridge","F","non-repeat","null","236","stimuli/bridge_19.jpg","","","","",""
"","","","","","image-keyboard-response","270","2.0.0","281187","p1mzf32delq","trex","null","stimuli/stream_42.jpg","null","stream","G","non-repeat","null","237","stimuli/stream_42.jpg","","","","",""
"","","","","","image-keyboard-response","271","2.0.0","282190","p1mzf32delq","trex","null","stimuli/street_8.jpg","null","street","H","non-repeat","null","238","stimuli/street_8.jpg","","","","",""
"","","","","","image-keyboard-response","272","2.0.0","283194","p1mzf32delq","trex","null","stimuli/playground_10.jpg","null","playground","I","non-repeat","null","239","stimuli/playground_10.jpg","","","","",""
"","","","","","image-keyboard-response","273","2.0.0","284198","p1mzf32delq","trex","null","stimuli/playground_10.jpg","null","playground","I","repeat"," ","239","","","","","",""
"","","","","","image-keyboard-response","274","2.0.0","285202","p1mzf32delq","trex","null","stimuli/coast_54.jpg","null","coast","D","non-repeat","null","240","stimuli/coast_54.jpg","","","","",""
"","","","","","image-keyboard-response","275","2.0.0","286206","p1mzf32delq","trex","null","stimuli/woods_26.jpg","null","woods","E","non-repeat","null","241","stimuli/woods_26.jpg","","","","",""
"","","","","","image-keyboard-response","276","2.0.0","287209","p1mzf32delq","trex","null","stimuli/bridge_19.jpg","null","bridge","F","non-repeat","null","242","stimuli/bridge_19.jpg","","","","",""
"","","","","","image-keyboard-response","277","2.0.0","288213","p1mzf32delq","trex","null","stimuli/bathroom_37.jpg","null","bathroom","A","non-repeat","null","243","stimuli/bathroom_37.jpg","","","","",""
"","","","","","image-keyboard-response","278","2.0.0","289216","p1mzf32delq","trex","null","stimuli/kitchen_50.jpg","null","kitchen","B","non-repeat","null","244","stimuli/kitchen_50.jpg","","","","",""
"","","","","","image-keyboard-response","279","2.0.0","290225","p1mzf32delq","trex","null","stimuli/field_54.jpg","null","field","C","non-repeat","null","245","stimuli/field_54.jpg","","","","",""
"","","","","","image-keyboard-response","280","2.0.0","291229","p1mzf32delq","trex","null","stimuli/stream_42.jpg","null","stream","G","non-repeat","null","246","stimuli/stream_42.jpg","","","","",""
"","","","","","image-keyboard-response","281","2.0.0","292234","p1mzf32delq","trex","679","stimuli/stream_42.jpg"," ","stream","G","repeat"," ","246","","","","","",""
"","","","","","image-keyboard-response","282","2.0.0","293237","p1mzf32delq","trex","null","stimuli/street_8.jpg","null","street","H","non-repeat","null","247","stimuli/street_8.jpg","","","","",""
"","","","","","image-keyboard-response","283","2.0.0","294241","p1mzf32delq","trex","null","stimuli/playground_10.jpg","null","playground","I","non-repeat","null","248","stimuli/playground_10.jpg","","","","",""
"","","","","","image-keyboard-response","284","2.0.0","295245","p1mzf32delq","trex","null","stimuli/coast_54.jpg","null","coast","D","non-repeat","null","249","stimuli/coast_54.jpg","","","","",""
"","","","","","image-keyboard-response","285","2.0.0","296249","p1mzf32delq","trex","null","stimuli/woods_26.jpg","null","woods","E","non-repeat","null","250","stimuli/woods_26.jpg","","","","",""
"","","","","","image-keyboard-response","286","2.0.0","297252","p1mzf32delq","trex","null","stimuli/bridge_19.jpg","null","bridge","F","non-repeat","null","251","stimuli/bridge_19.jpg","","","","",""
"","","","","","image-keyboard-response","287","2.0.0","298256","p1mzf32delq","trex","null","stimuli/bar_67.jpg","null","bar","J","non-repeat","null","252","stimuli/bar_67.jpg","","","","",""
"","","","","","image-keyboard-response","288","2.0.0","299259","p1mzf32delq","trex","null","stimuli/gym_52.jpg","null","gym","K","non-repeat","null","253","stimuli/gym_52.jpg","","","","",""
"","","","","","image-keyboard-response","289","2.0.0","300262","p1mzf32delq","trex","null","stimuli/desert_50.jpg","null","desert","L","non-repeat","null","254","stimuli/desert_50.jpg","","","","",""
"","","","","","image-keyboard-response","290","2.0.0","301266","p1mzf32delq","trex","null","stimuli/desert_50.jpg","null","desert","L","repeat"," ","254","","","","","",""
"","","","","","image-keyboard-response","291","2.0.0","302269","p1mzf32delq","trex","null","stimuli/bathroom_37.jpg","null","bathroom","A","non-repeat","null","255","stimuli/bathroom_37.jpg","","","","",""
"","","","","","image-keyboard-response","292","2.0.0","303273","p1mzf32delq","trex","null","stimuli/kitchen_50.jpg","null","kitchen","B","non-repeat","null","256","stimuli/kitchen_50.jpg","","","","",""
"","","","","","image-keyboard-response","293","2.0.0","304277","p1mzf32delq","trex","null","stimuli/field_54.jpg","null","field","C","non-repeat","null","257","stimuli/field_54.jpg","","","","",""
"","","","","","image-keyboard-response","294","2.0.0","305281","p1mzf32delq","trex","null","stimuli/stream_42.jpg","null","stream","G","non-repeat","null","258","stimuli/stream_42.jpg","","","","",""
"","","","","","image-keyboard-response","295","2.0.0","306284","p1mzf32delq","trex","null","stimuli/stream_42.jpg","null","stream","G","repeat"," ","258","","","","","",""
"","","","","","image-keyboard-response","296","2.0.0","307289","p1mzf32delq","trex","null","stimuli/street_8.jpg","null","street","H","non-repeat","null","259","stimuli/street_8.jpg","","","","",""
"","","","","","image-keyboard-response","297","2.0.0","308293","p1mzf32delq","trex","null","stimuli/playground_10.jpg","null","playground","I","non-repeat","null","260","stimuli/playground_10.jpg","","","","",""
"","","","","","image-keyboard-response","298","2.0.0","309296","p1mzf32delq","trex","null","stimuli/bar_67.jpg","null","bar","J","non-repeat","null","261","stimuli/bar_67.jpg","","","","",""
"","","","","","image-keyboard-response","299","2.0.0","310300","p1mzf32delq","trex","null","stimuli/gym_52.jpg","null","gym","K","non-repeat","null","262","stimuli/gym_52.jpg","","","","",""
"","","","","","image-keyboard-response","300","2.0.0","311304","p1mzf32delq","trex","null","stimuli/desert_50.jpg","null","desert","L","non-repeat","null","263","stimuli/desert_50.jpg","","","","",""
"","","","","","image-keyboard-response","301","2.0.0","312308","p1mzf32delq","trex","null","stimuli/desert_50.jpg","null","desert","L","repeat"," ","263","","","","","",""
"","","","","","image-keyboard-response","302","2.0.0","313312","p1mzf32delq","trex","null","stimuli/coast_54.jpg","null","coast","D","non-repeat","null","264","stimuli/coast_54.jpg","","","","",""
"","","","","","image-keyboard-response","303","2.0.0","314317","p1mzf32delq","trex","null","stimuli/woods_26.jpg","null","woods","E","non-repeat","null","265","stimuli/woods_26.jpg","","","","",""
"","","","","","image-keyboard-response","304","2.0.0","315320","p1mzf32delq","trex","null","stimuli/bridge_19.jpg","null","bridge","F","non-repeat","null","266","stimuli/bridge_19.jpg","","","","",""
"","","","","","image-keyboard-response","305","2.0.0","316324","p1mzf32delq","trex","null","stimuli/bathroom_37.jpg","null","bathroom","A","non-repeat","null","267","stimuli/bathroom_37.jpg","","","","",""
"","","","","","image-keyboard-response","306","2.0.0","317329","p1mzf32delq","trex","null","stimuli/kitchen_50.jpg","null","kitchen","B","non-repeat","null","268","stimuli/kitchen_50.jpg","","","","",""
"","","","","","image-keyboard-response","307","2.0.0","318333","p1mzf32delq","trex","null","stimuli/field_54.jpg","null","field","C","non-repeat","null","269","stimuli/field_54.jpg","","","","",""
"","","","","","image-keyboard-response","308","2.0.0","319336","p1mzf32delq","trex","null","stimuli/coast_54.jpg","null","coast","D","non-repeat","null","270","stimuli/coast_54.jpg","","","","",""
"","","","","","image-keyboard-response","309","2.0.0","320341","p1mzf32delq","trex","null","stimuli/woods_26.jpg","null","woods","E","non-repeat","null","271","stimuli/woods_26.jpg","","","","",""
"","","","","","image-keyboard-response","310","2.0.0","321344","p1mzf32delq","trex","null","stimuli/bridge_19.jpg","null","bridge","F","non-repeat","null","272","stimuli/bridge_19.jpg","","","","",""
"","","","","","image-keyboard-response","311","2.0.0","322348","p1mzf32delq","trex","null","stimuli/bathroom_37.jpg","null","bathroom","A","non-repeat","null","273","stimuli/bathroom_37.jpg","","","","",""
"","","","","","image-keyboard-response","312","2.0.0","323352","p1mzf32delq","trex","null","stimuli/kitchen_50.jpg","null","kitchen","B","non-repeat","null","274","stimuli/kitchen_50.jpg","","","","",""
"","","","","","image-keyboard-response","313","2.0.0","324355","p1mzf32delq","trex","null","stimuli/field_54.jpg","null","field","C","non-repeat","null","275","stimuli/field_54.jpg","","","","",""
"","","","","","image-keyboard-response","314","2.0.0","325358","p1mzf32delq","trex","null","stimuli/coast_54.jpg","null","coast","D","non-repeat","null","276","stimuli/coast_54.jpg","","","","",""
"","","","","","image-keyboard-response","315","2.0.0","326362","p1mzf32delq","trex","null","stimuli/woods_26.jpg","null","woods","E","non-repeat","null","277","stimuli/woods_26.jpg","","","","",""
"","","","","","image-keyboard-response","316","2.0.0","327366","p1mzf32delq","trex","null","stimuli/bridge_19.jpg","null","bridge","F","non-repeat","null","278","stimuli/bridge_19.jpg","","","","",""
"","","","","","image-keyboard-response","317","2.0.0","328370","p1mzf32delq","trex","575","stimuli/bridge_19.jpg"," ","bridge","F","repeat"," ","278","","","","","",""
"","","","","","image-keyboard-response","318","2.0.0","329374","p1mzf32delq","trex","null","stimuli/stream_42.jpg","null","stream","G","non-repeat","null","279","stimuli/stream_42.jpg","","","","",""
"","","","","","image-keyboard-response","319","2.0.0","330378","p1mzf32delq","trex","null","stimuli/street_8.jpg","null","street","H","non-repeat","null","280","stimuli/street_8.jpg","","","","",""
"","","","","","image-keyboard-response","320","2.0.0","331382","p1mzf32delq","trex","null","stimuli/playground_10.jpg","null","playground","I","non-repeat","null","281","stimuli/playground_10.jpg","","","","",""
"","","","","","image-keyboard-response","321","2.0.0","332386","p1mzf32delq","trex","null","stimuli/coast_54.jpg","null","coast","D","non-repeat","null","282","stimuli/coast_54.jpg","","","","",""
"","","","","","image-keyboard-response","322","2.0.0","333390","p1mzf32delq","trex","null","stimuli/woods_26.jpg","null","woods","E","non-repeat","null","283","stimuli/woods_26.jpg","","","","",""
"","","","","","image-keyboard-response","323","2.0.0","334394","p1mzf32delq","trex","null","stimuli/bridge_19.jpg","null","bridge","F","non-repeat","null","284","stimuli/bridge_19.jpg","","","","",""
"","","","","","image-keyboard-response","324","2.0.0","335398","p1mzf32delq","trex","null","stimuli/bathroom_37.jpg","null","bathroom","A","non-repeat","null","285","stimuli/bathroom_37.jpg","","","","",""
"","","","","","image-keyboard-response","325","2.0.0","336402","p1mzf32delq","trex","null","stimuli/kitchen_50.jpg","null","kitchen","B","non-repeat","null","286","stimuli/kitchen_50.jpg","","","","",""
"","","","","","image-keyboard-response","326","2.0.0","337406","p1mzf32delq","trex","null","stimuli/field_54.jpg","null","field","C","non-repeat","null","287","stimuli/field_54.jpg","","","","",""
"","","","","","image-keyboard-response","327","2.0.0","338409","p1mzf32delq","trex","null","stimuli/bar_67.jpg","null","bar","J","non-repeat","null","288","stimuli/bar_67.jpg","","","","",""
"","","","","","image-keyboard-response","328","2.0.0","339412","p1mzf32delq","trex","null","stimuli/gym_52.jpg","null","gym","K","non-repeat","null","289","stimuli/gym_52.jpg","","","","",""
"","","","","","image-keyboard-response","329","2.0.0","340416","p1mzf32delq","trex","null","stimuli/desert_50.jpg","null","desert","L","non-repeat","null","290","stimuli/desert_50.jpg","","","","",""
"","","","","","image-keyboard-response","330","2.0.0","341420","p1mzf32delq","trex","null","stimuli/coast_54.jpg","null","coast","D","non-repeat","null","291","stimuli/coast_54.jpg","","","","",""
"","","","","","image-keyboard-response","331","2.0.0","342425","p1mzf32delq","trex","null","stimuli/woods_26.jpg","null","woods","E","non-repeat","null","292","stimuli/woods_26.jpg","","","","",""
"","","","","","image-keyboard-response","332","2.0.0","343428","p1mzf32delq","trex","null","stimuli/bridge_19.jpg","null","bridge","F","non-repeat","null","293","stimuli/bridge_19.jpg","","","","",""
"","","","","","image-keyboard-response","333","2.0.0","344432","p1mzf32delq","trex","null","stimuli/bathroom_37.jpg","null","bathroom","A","non-repeat","null","294","stimuli/bathroom_37.jpg","","","","",""
"","","","","","image-keyboard-response","334","2.0.0","345436","p1mzf32delq","trex","588","stimuli/bathroom_37.jpg"," ","bathroom","A","repeat"," ","294","","","","","",""
"","","","","","image-keyboard-response","335","2.0.0","346440","p1mzf32delq","trex","null","stimuli/kitchen_50.jpg","null","kitchen","B","non-repeat","null","295","stimuli/kitchen_50.jpg","","","","",""
"","","","","","image-keyboard-response","336","2.0.0","347444","p1mzf32delq","trex","null","stimuli/field_54.jpg","null","field","C","non-repeat","null","296","stimuli/field_54.jpg","","","","",""
"","","","","","image-keyboard-response","337","2.0.0","348448","p1mzf32delq","trex","717","stimuli/field_54.jpg"," ","field","C","repeat"," ","296","","","","","",""
"","","","","","image-keyboard-response","338","2.0.0","349452","p1mzf32delq","trex","null","stimuli/bar_67.jpg","null","bar","J","non-repeat","null","297","stimuli/bar_67.jpg","","","","",""
"","","","","","image-keyboard-response","339","2.0.0","350456","p1mzf32delq","trex","null","stimuli/gym_52.jpg","null","gym","K","non-repeat","null","298","stimuli/gym_52.jpg","","","","",""
"","","","","","image-keyboard-response","340","2.0.0","351460","p1mzf32delq","trex","null","stimuli/desert_50.jpg","null","desert","L","non-repeat","null","299","stimuli/desert_50.jpg","","","","",""
"","","","","","image-keyboard-response","341","2.0.0","352463","p1mzf32delq","trex","null","stimuli/bathroom_37.jpg","null","bathroom","A","non-repeat","null","300","stimuli/bathroom_37.jpg","","","","",""
"","","","","","image-keyboard-response","342","2.0.0","353467","p1mzf32delq","trex","null","stimuli/kitchen_50.jpg","null","kitchen","B","non-repeat","null","301","stimuli/kitchen_50.jpg","","","","",""
"","","","","","image-keyboard-response","343","2.0.0","354471","p1mzf32delq","trex","null","stimuli/field_54.jpg","null","field","C","non-repeat","null","302","stimuli/field_54.jpg","","","","",""
"","","","","","image-keyboard-response","344","2.0.0","355475","p1mzf32delq","trex","null","stimuli/bar_67.jpg","null","bar","J","non-repeat","null","303","stimuli/bar_67.jpg","","","","",""
"","","","","","image-keyboard-response","345","2.0.0","356479","p1mzf32delq","trex","null","stimuli/gym_52.jpg","null","gym","K","non-repeat","null","304","stimuli/gym_52.jpg","","","","",""
"","","","","","image-keyboard-response","346","2.0.0","357483","p1mzf32delq","trex","null","stimuli/desert_50.jpg","null","desert","L","non-repeat","null","305","stimuli/desert_50.jpg","","","","",""
"","","","","","image-keyboard-response","347","2.0.0","358487","p1mzf32delq","trex","null","stimuli/stream_42.jpg","null","stream","G","non-repeat","null","306","stimuli/stream_42.jpg","","","","",""
"","","","","","image-keyboard-response","348","2.0.0","359491","p1mzf32delq","trex","null","stimuli/street_8.jpg","null","street","H","non-repeat","null","307","stimuli/street_8.jpg","","","","",""
"","","","","","image-keyboard-response","349","2.0.0","360495","p1mzf32delq","trex","null","stimuli/playground_10.jpg","null","playground","I","non-repeat","null","308","stimuli/playground_10.jpg","","","","",""
"","","","","","image-keyboard-response","350","2.0.0","361498","p1mzf32delq","trex","null","stimuli/coast_54.jpg","null","coast","D","non-repeat","null","309","stimuli/coast_54.jpg","","","","",""
"","","","","","image-keyboard-response","351","2.0.0","362502","p1mzf32delq","trex","null","stimuli/woods_26.jpg","null","woods","E","non-repeat","null","310","stimuli/woods_26.jpg","","","","",""
"","","","","","image-keyboard-response","352","2.0.0","363506","p1mzf32delq","trex","null","stimuli/bridge_19.jpg","null","bridge","F","non-repeat","null","311","stimuli/bridge_19.jpg","","","","",""
"","","","","","image-keyboard-response","353","2.0.0","364511","p1mzf32delq","trex","655","stimuli/bridge_19.jpg"," ","bridge","F","repeat"," ","311","","","","","",""
"","","","","","image-keyboard-response","354","2.0.0","365515","p1mzf32delq","trex","null","stimuli/stream_42.jpg","null","stream","G","non-repeat","null","312","stimuli/stream_42.jpg","","","","",""
"","","","","","image-keyboard-response","355","2.0.0","366519","p1mzf32delq","trex","null","stimuli/street_8.jpg","null","street","H","non-repeat","null","313","stimuli/street_8.jpg","","","","",""
"","","","","","image-keyboard-response","356","2.0.0","367523","p1mzf32delq","trex","null","stimuli/playground_10.jpg","null","playground","I","non-repeat","null","314","stimuli/playground_10.jpg","","","","",""
"","","","","","image-keyboard-response","357","2.0.0","368527","p1mzf32delq","trex","null","stimuli/bar_67.jpg","null","bar","J","non-repeat","null","315","stimuli/bar_67.jpg","","","","",""
"","","","","","image-keyboard-response","358","2.0.0","369531","p1mzf32delq","trex","null","stimuli/gym_52.jpg","null","gym","K","non-repeat","null","316","stimuli/gym_52.jpg","","","","",""
"","","","","","image-keyboard-response","359","2.0.0","370534","p1mzf32delq","trex","null","stimuli/desert_50.jpg","null","desert","L","non-repeat","null","317","stimuli/desert_50.jpg","","","","",""
"","","","","","image-keyboard-response","360","2.0.0","371538","p1mzf32delq","trex","null","stimuli/desert_50.jpg","null","desert","L","repeat"," ","317","","","","","",""
"","","","","","image-keyboard-response","361","2.0.0","372542","p1mzf32delq","trex","null","stimuli/coast_54.jpg","null","coast","D","non-repeat","null","318","stimuli/coast_54.jpg","","","","",""
"","","","","","image-keyboard-response","362","2.0.0","373546","p1mzf32delq","trex","null","stimuli/woods_26.jpg","null","woods","E","non-repeat","null","319","stimuli/woods_26.jpg","","","","",""
"","","","","","image-keyboard-response","363","2.0.0","374550","p1mzf32delq","trex","null","stimuli/bridge_19.jpg","null","bridge","F","non-repeat","null","320","stimuli/bridge_19.jpg","","","","",""
"","","","","","image-keyboard-response","364","2.0.0","375554","p1mzf32delq","trex","null","stimuli/bar_67.jpg","null","bar","J","non-repeat","null","321","stimuli/bar_67.jpg","","","","",""
"","","","","","image-keyboard-response","365","2.0.0","376562","p1mzf32delq","trex","null","stimuli/gym_52.jpg","null","gym","K","non-repeat","null","322","stimuli/gym_52.jpg","","","","",""
"","","","","","image-keyboard-response","366","2.0.0","377566","p1mzf32delq","trex","null","stimuli/desert_50.jpg","null","desert","L","non-repeat","null","323","stimuli/desert_50.jpg","","","","",""
"","","","","","image-keyboard-response","367","2.0.0","378569","p1mzf32delq","trex","null","stimuli/coast_54.jpg","null","coast","D","non-repeat","null","324","stimuli/coast_54.jpg","","","","",""
"","","","","","image-keyboard-response","368","2.0.0","379573","p1mzf32delq","trex","null","stimuli/woods_26.jpg","null","woods","E","non-repeat","null","325","stimuli/woods_26.jpg","","","","",""
"","","","","","image-keyboard-response","369","2.0.0","380578","p1mzf32delq","trex","null","stimuli/bridge_19.jpg","null","bridge","F","non-repeat","null","326","stimuli/bridge_19.jpg","","","","",""
"","","","","","image-keyboard-response","370","2.0.0","381582","p1mzf32delq","trex","null","stimuli/bar_67.jpg","null","bar","J","non-repeat","null","327","stimuli/bar_67.jpg","","","","",""
"","","","","","image-keyboard-response","371","2.0.0","382586","p1mzf32delq","trex","null","stimuli/gym_52.jpg","null","gym","K","non-repeat","null","328","stimuli/gym_52.jpg","","","","",""
"","","","","","image-keyboard-response","372","2.0.0","383590","p1mzf32delq","trex","null","stimuli/desert_50.jpg","null","desert","L","non-repeat","null","329","stimuli/desert_50.jpg","","","","",""
"","","","","","image-keyboard-response","373","2.0.0","384594","p1mzf32delq","trex","null","stimuli/coast_54.jpg","null","coast","D","non-repeat","null","330","stimuli/coast_54.jpg","","","","",""
"","","","","","image-keyboard-response","374","2.0.0","385598","p1mzf32delq","trex","null","stimuli/woods_26.jpg","null","woods","E","non-repeat","null","331","stimuli/woods_26.jpg","","","","",""
"","","","","","image-keyboard-response","375","2.0.0","386602","p1mzf32delq","trex","null","stimuli/bridge_19.jpg","null","bridge","F","non-repeat","null","332","stimuli/bridge_19.jpg","","","","",""
"","","","","","image-keyboard-response","376","2.0.0","387606","p1mzf32delq","trex","null","stimuli/bar_67.jpg","null","bar","J","non-repeat","null","333","stimuli/bar_67.jpg","","","","",""
"","","","","","image-keyboard-response","377","2.0.0","388610","p1mzf32delq","trex","null","stimuli/gym_52.jpg","null","gym","K","non-repeat","null","334","stimuli/gym_52.jpg","","","","",""
"","","","","","image-keyboard-response","378","2.0.0","389614","p1mzf32delq","trex","null","stimuli/desert_50.jpg","null","desert","L","non-repeat","null","335","stimuli/desert_50.jpg","","","","",""
"","","","","","image-keyboard-response","379","2.0.0","390618","p1mzf32delq","trex","null","stimuli/stream_42.jpg","null","stream","G","non-repeat","null","336","stimuli/stream_42.jpg","","","","",""
"","","","","","image-keyboard-response","380","2.0.0","391622","p1mzf32delq","trex","null","stimuli/street_8.jpg","null","street","H","non-repeat","null","337","stimuli/street_8.jpg","","","","",""
"","","","","","image-keyboard-response","381","2.0.0","392627","p1mzf32delq","trex","null","stimuli/playground_10.jpg","null","playground","I","non-repeat","null","338","stimuli/playground_10.jpg","","","","",""
"","","","","","image-keyboard-response","382","2.0.0","393630","p1mzf32delq","trex","null","stimuli/coast_54.jpg","null","coast","D","non-repeat","null","339","stimuli/coast_54.jpg","","","","",""
"","","","","","image-keyboard-response","383","2.0.0","394634","p1mzf32delq","trex","null","stimuli/woods_26.jpg","null","woods","E","non-repeat","null","340","stimuli/woods_26.jpg","","","","",""
"","","","","","image-keyboard-response","384","2.0.0","395637","p1mzf32delq","trex","null","stimuli/bridge_19.jpg","null","bridge","F","non-repeat","null","341","stimuli/bridge_19.jpg","","","","",""
"","","","","","image-keyboard-response","385","2.0.0","396641","p1mzf32delq","trex","null","stimuli/bathroom_37.jpg","null","bathroom","A","non-repeat","null","342","stimuli/bathroom_37.jpg","","","","",""
"","","","","","image-keyboard-response","386","2.0.0","397645","p1mzf32delq","trex","571","stimuli/bathroom_37.jpg"," ","bathroom","A","repeat"," ","342","","","","","",""
"","","","","","image-keyboard-response","387","2.0.0","398649","p1mzf32delq","trex","null","stimuli/kitchen_50.jpg","null","kitchen","B","non-repeat","null","343","stimuli/kitchen_50.jpg","","","","",""
"","","","","","image-keyboard-response","388","2.0.0","399652","p1mzf32delq","trex","null","stimuli/field_54.jpg","null","field","C","non-repeat","null","344","stimuli/field_54.jpg","","","","",""
"","","","","","image-keyboard-response","389","2.0.0","400656","p1mzf32delq","trex","null","stimuli/coast_54.jpg","null","coast","D","non-repeat","null","345","stimuli/coast_54.jpg","","","","",""
"","","","","","image-keyboard-response","390","2.0.0","401660","p1mzf32delq","trex","383","stimuli/coast_54.jpg"," ","coast","D","repeat"," ","345","","","","","",""
"","","","","","image-keyboard-response","391","2.0.0","402664","p1mzf32delq","trex","null","stimuli/woods_26.jpg","null","woods","E","non-repeat","null","346","stimuli/woods_26.jpg","","","","",""
"","","","","","image-keyboard-response","392","2.0.0","403668","p1mzf32delq","trex","null","stimuli/bridge_19.jpg","null","bridge","F","non-repeat","null","347","stimuli/bridge_19.jpg","","","","",""
"","","","","","image-keyboard-response","393","2.0.0","404672","p1mzf32delq","trex","null","stimuli/bridge_19.jpg","null","bridge","F","repeat"," ","347","","","","","",""
"","","","","","image-keyboard-response","394","2.0.0","405675","p1mzf32delq","trex","null","stimuli/bar_67.jpg","null","bar","J","non-repeat","null","348","stimuli/bar_67.jpg","","","","",""
"","","","","","image-keyboard-response","395","2.0.0","406680","p1mzf32delq","trex","null","stimuli/gym_52.jpg","null","gym","K","non-repeat","null","349","stimuli/gym_52.jpg","","","","",""
"","","","","","image-keyboard-response","396","2.0.0","407683","p1mzf32delq","trex","null","stimuli/desert_50.jpg","null","desert","L","non-repeat","null","350","stimuli/desert_50.jpg","","","","",""
"","","","","","image-keyboard-response","397","2.0.0","408687","p1mzf32delq","trex","null","stimuli/coast_54.jpg","null","coast","D","non-repeat","null","351","stimuli/coast_54.jpg","","","","",""
"","","","","","image-keyboard-response","398","2.0.0","409690","p1mzf32delq","trex","null","stimuli/woods_26.jpg","null","woods","E","non-repeat","null","352","stimuli/woods_26.jpg","","","","",""
"","","","","","image-keyboard-response","399","2.0.0","410695","p1mzf32delq","trex","null","stimuli/bridge_19.jpg","null","bridge","F","non-repeat","null","353","stimuli/bridge_19.jpg","","","","",""
"","","","","","image-keyboard-response","400","2.0.0","411699","p1mzf32delq","trex","null","stimuli/bathroom_37.jpg","null","bathroom","A","non-repeat","null","354","stimuli/bathroom_37.jpg","","","","",""
"","","","","","image-keyboard-response","401","2.0.0","412703","p1mzf32delq","trex","null","stimuli/kitchen_50.jpg","null","kitchen","B","non-repeat","null","355","stimuli/kitchen_50.jpg","","","","",""
"","","","","","image-keyboard-response","402","2.0.0","413707","p1mzf32delq","trex","null","stimuli/field_54.jpg","null","field","C","non-repeat","null","356","stimuli/field_54.jpg","","","","",""
"","","","","","image-keyboard-response","403","2.0.0","414711","p1mzf32delq","trex","null","stimuli/coast_54.jpg","null","coast","D","non-repeat","null","357","stimuli/coast_54.jpg","","","","",""
"","","","","","image-keyboard-response","404","2.0.0","415716","p1mzf32delq","trex","325","stimuli/coast_54.jpg"," ","coast","D","repeat"," ","357","","","","","",""
"","","","","","image-keyboard-response","405","2.0.0","416720","p1mzf32delq","trex","null","stimuli/woods_26.jpg","null","woods","E","non-repeat","null","358","stimuli/woods_26.jpg","","","","",""
"","","","","","image-keyboard-response","406","2.0.0","417723","p1mzf32delq","trex","null","stimuli/bridge_19.jpg","null","bridge","F","non-repeat","null","359","stimuli/bridge_19.jpg","","","","",""
"","","","","","image-keyboard-response","407","2.0.0","418728","p1mzf32delq","trex","null","stimuli/bridge_19.jpg","null","bridge","F","repeat"," ","359","","","","","",""
"","","","","","image-keyboard-response","408","2.0.0","419732","p1mzf32delq","trex","null","stimuli/bathroom_37.jpg","null","bathroom","A","non-repeat","null","360","stimuli/bathroom_37.jpg","","","","",""
"","","","","","image-keyboard-response","409","2.0.0","420736","p1mzf32delq","trex","null","stimuli/kitchen_50.jpg","null","kitchen","B","non-repeat","null","361","stimuli/kitchen_50.jpg","","","","",""
"","","","","","image-keyboard-response","410","2.0.0","421741","p1mzf32delq","trex","null","stimuli/field_54.jpg","null","field","C","non-repeat","null","362","stimuli/field_54.jpg","","","","",""
"","","","","","image-keyboard-response","411","2.0.0","422744","p1mzf32delq","trex","626","stimuli/field_54.jpg"," ","field","C","repeat"," ","362","","","","","",""
"","","","","","image-keyboard-response","412","2.0.0","423747","p1mzf32delq","trex","null","stimuli/bar_67.jpg","null","bar","J","non-repeat","null","363","stimuli/bar_67.jpg","","","","",""
"","","","","","image-keyboard-response","413","2.0.0","424751","p1mzf32delq","trex","459","stimuli/bar_67.jpg"," ","bar","J","repeat"," ","363","","","","","",""
"","","","","","image-keyboard-response","414","2.0.0","425755","p1mzf32delq","trex","null","stimuli/gym_52.jpg","null","gym","K","non-repeat","null","364","stimuli/gym_52.jpg","","","","",""
"","","","","","image-keyboard-response","415","2.0.0","426760","p1mzf32delq","trex","null","stimuli/desert_50.jpg","null","desert","L","non-repeat","null","365","stimuli/desert_50.jpg","","","","",""
"","","","","","image-keyboard-response","416","2.0.0","427762","p1mzf32delq","trex","null","stimuli/stream_42.jpg","null","stream","G","non-repeat","null","366","stimuli/stream_42.jpg","","","","",""
"","","","","","image-keyboard-response","417","2.0.0","428766","p1mzf32delq","trex","null","stimuli/street_8.jpg","null","street","H","non-repeat","null","367","stimuli/street_8.jpg","","","","",""
"","","","","","image-keyboard-response","418","2.0.0","429770","p1mzf32delq","trex","null","stimuli/playground_10.jpg","null","playground","I","non-repeat","null","368","stimuli/playground_10.jpg","","","","",""
"","","","","","image-keyboard-response","419","2.0.0","430775","p1mzf32delq","trex","null","stimuli/bar_67.jpg","null","bar","J","non-repeat","null","369","stimuli/bar_67.jpg","","","","",""
"","","","","","image-keyboard-response","420","2.0.0","431779","p1mzf32delq","trex","null","stimuli/gym_52.jpg","null","gym","K","non-repeat","null","370","stimuli/gym_52.jpg","","","","",""
"","","","","","image-keyboard-response","421","2.0.0","432782","p1mzf32delq","trex","null","stimuli/desert_50.jpg","null","desert","L","non-repeat","null","371","stimuli/desert_50.jpg","","","","",""
"","","","","","image-keyboard-response","422","2.0.0","433786","p1mzf32delq","trex","null","stimuli/bathroom_37.jpg","null","bathroom","A","non-repeat","null","372","stimuli/bathroom_37.jpg","","","","",""
"","","","","","image-keyboard-response","423","2.0.0","434790","p1mzf32delq","trex","null","stimuli/bathroom_37.jpg","null","bathroom","A","repeat"," ","372","","","","","",""
"","","","","","image-keyboard-response","424","2.0.0","435794","p1mzf32delq","trex","null","stimuli/kitchen_50.jpg","null","kitchen","B","non-repeat","null","373","stimuli/kitchen_50.jpg","","","","",""
"","","","","","image-keyboard-response","425","2.0.0","436799","p1mzf32delq","trex","null","stimuli/field_54.jpg","null","field","C","non-repeat","null","374","stimuli/field_54.jpg","","","","",""
"","","","","","image-keyboard-response","426","2.0.0","437802","p1mzf32delq","trex","430","stimuli/field_54.jpg"," ","field","C","repeat"," ","374","","","","","",""
"","","","","","image-keyboard-response","427","2.0.0","438805","p1mzf32delq","trex","null","stimuli/bar_67.jpg","null","bar","J","non-repeat","null","375","stimuli/bar_67.jpg","","","","",""
"","","","","","image-keyboard-response","428","2.0.0","439808","p1mzf32delq","trex","null","stimuli/gym_52.jpg","null","gym","K","non-repeat","null","376","stimuli/gym_52.jpg","","","","",""
"","","","","","image-keyboard-response","429","2.0.0","440811","p1mzf32delq","trex","null","stimuli/desert_50.jpg","null","desert","L","non-repeat","null","377","stimuli/desert_50.jpg","","","","",""
"","","","","","image-keyboard-response","430","2.0.0","441816","p1mzf32delq","trex","null","stimuli/coast_54.jpg","null","coast","D","non-repeat","null","378","stimuli/coast_54.jpg","","","","",""
"","","","","","image-keyboard-response","431","2.0.0","442819","p1mzf32delq","trex","null","stimuli/woods_26.jpg","null","woods","E","non-repeat","null","379","stimuli/woods_26.jpg","","","","",""
"","","","","","image-keyboard-response","432","2.0.0","443823","p1mzf32delq","trex","null","stimuli/bridge_19.jpg","null","bridge","F","non-repeat","null","380","stimuli/bridge_19.jpg","","","","",""
"","","","","","image-keyboard-response","433","2.0.0","444828","p1mzf32delq","trex","null","stimuli/bathroom_37.jpg","null","bathroom","A","non-repeat","null","381","stimuli/bathroom_37.jpg","","","","",""
"","","","","","image-keyboard-response","434","2.0.0","445832","p1mzf32delq","trex","null","stimuli/kitchen_50.jpg","null","kitchen","B","non-repeat","null","382","stimuli/kitchen_50.jpg","","","","",""
"","","","","","image-keyboard-response","435","2.0.0","446836","p1mzf32delq","trex","null","stimuli/field_54.jpg","null","field","C","non-repeat","null","383","stimuli/field_54.jpg","","","","",""
"","","","","","image-keyboard-response","436","2.0.0","447839","p1mzf32delq","trex","null","stimuli/stream_42.jpg","null","stream","G","non-repeat","null","384","stimuli/stream_42.jpg","","","","",""
"","","","","","image-keyboard-response","437","2.0.0","448844","p1mzf32delq","trex","null","stimuli/street_8.jpg","null","street","H","non-repeat","null","385","stimuli/street_8.jpg","","","","",""
"","","","","","image-keyboard-response","438","2.0.0","449848","p1mzf32delq","trex","null","stimuli/playground_10.jpg","null","playground","I","non-repeat","null","386","stimuli/playground_10.jpg","","","","",""
"","","","","","image-keyboard-response","439","2.0.0","450852","p1mzf32delq","trex","688","stimuli/playground_10.jpg"," ","playground","I","repeat"," ","386","","","","","",""
"","","","","","image-keyboard-response","440","2.0.0","451856","p1mzf32delq","trex","null","stimuli/coast_54.jpg","null","coast","D","non-repeat","null","387","stimuli/coast_54.jpg","","","","",""
"","","","","","image-keyboard-response","441","2.0.0","452860","p1mzf32delq","trex","null","stimuli/woods_26.jpg","null","woods","E","non-repeat","null","388","stimuli/woods_26.jpg","","","","",""
"","","","","","image-keyboard-response","442","2.0.0","453864","p1mzf32delq","trex","null","stimuli/bridge_19.jpg","null","bridge","F","non-repeat","null","389","stimuli/bridge_19.jpg","","","","",""
"","","","","","image-keyboard-response","443","2.0.0","454869","p1mzf32delq","trex","null","stimuli/bathroom_37.jpg","null","bathroom","A","non-repeat","null","390","stimuli/bathroom_37.jpg","","","","",""
"","","","","","image-keyboard-response","444","2.0.0","455872","p1mzf32delq","trex","null","stimuli/kitchen_50.jpg","null","kitchen","B","non-repeat","null","391","stimuli/kitchen_50.jpg","","","","",""
"","","","","","image-keyboard-response","445","2.0.0","456876","p1mzf32delq","trex","null","stimuli/field_54.jpg","null","field","C","non-repeat","null","392","stimuli/field_54.jpg","","","","",""
"","","","","","image-keyboard-response","446","2.0.0","457879","p1mzf32delq","trex","null","stimuli/stream_42.jpg","null","stream","G","non-repeat","null","393","stimuli/stream_42.jpg","","","","",""
"","","","","","image-keyboard-response","447","2.0.0","458882","p1mzf32delq","trex","null","stimuli/stream_42.jpg","null","stream","G","repeat"," ","393","","","","","",""
"","","","","","image-keyboard-response","448","2.0.0","459887","p1mzf32delq","trex","null","stimuli/street_8.jpg","null","street","H","non-repeat","null","394","stimuli/street_8.jpg","","","","",""
"","","","","","image-keyboard-response","449","2.0.0","460891","p1mzf32delq","trex","null","stimuli/playground_10.jpg","null","playground","I","non-repeat","null","395","stimuli/playground_10.jpg","","","","",""
"","","","","","image-keyboard-response","450","2.0.0","461895","p1mzf32delq","trex","424","stimuli/playground_10.jpg"," ","playground","I","repeat"," ","395","","","","","",""
"","","","","","image-keyboard-response","451","2.0.0","462905","p1mzf32delq","trex","null","stimuli/bathroom_37.jpg","null","bathroom","A","non-repeat","null","396","stimuli/bathroom_37.jpg","","","","",""
"","","","","","image-keyboard-response","452","2.0.0","463908","p1mzf32delq","trex","null","stimuli/kitchen_50.jpg","null","kitchen","B","non-repeat","null","397","stimuli/kitchen_50.jpg","","","","",""
"","","","","","image-keyboard-response","453","2.0.0","464912","p1mzf32delq","trex","null","stimuli/field_54.jpg","null","field","C","non-repeat","null","398","stimuli/field_54.jpg","","","","",""
"","","","","","image-keyboard-response","454","2.0.0","465916","p1mzf32delq","trex","null","stimuli/stream_42.jpg","null","stream","G","non-repeat","null","399","stimuli/stream_42.jpg","","","","",""
"","","","","","image-keyboard-response","455","2.0.0","466920","p1mzf32delq","trex","524","stimuli/stream_42.jpg"," ","stream","G","repeat"," ","399","","","","","",""
"","","","","","image-keyboard-response","456","2.0.0","467924","p1mzf32delq","trex","null","stimuli/street_8.jpg","null","street","H","non-repeat","null","400","stimuli/street_8.jpg","","","","",""
"","","","","","image-keyboard-response","457","2.0.0","468927","p1mzf32delq","trex","null","stimuli/playground_10.jpg","null","playground","I","non-repeat","null","401","stimuli/playground_10.jpg","","","","",""
"","","","","","image-keyboard-response","458","2.0.0","469929","p1mzf32delq","trex","null","stimuli/bar_67.jpg","null","bar","J","non-repeat","null","402","stimuli/bar_67.jpg","","","","",""
"","","","","","image-keyboard-response","459","2.0.0","470934","p1mzf32delq","trex","null","stimuli/gym_52.jpg","null","gym","K","non-repeat","null","403","stimuli/gym_52.jpg","","","","",""
"","","","","","image-keyboard-response","460","2.0.0","471938","p1mzf32delq","trex","null","stimuli/desert_50.jpg","null","desert","L","non-repeat","null","404","stimuli/desert_50.jpg","","","","",""
"","","","","","image-keyboard-response","461","2.0.0","472942","p1mzf32delq","trex","null","stimuli/stream_42.jpg","null","stream","G","non-repeat","null","405","stimuli/stream_42.jpg","","","","",""
"","","","","","image-keyboard-response","462","2.0.0","473945","p1mzf32delq","trex","null","stimuli/street_8.jpg","null","street","H","non-repeat","null","406","stimuli/street_8.jpg","","","","",""
"","","","","","image-keyboard-response","463","2.0.0","474948","p1mzf32delq","trex","null","stimuli/playground_10.jpg","null","playground","I","non-repeat","null","407","stimuli/playground_10.jpg","","","","",""
"","","","","","image-keyboard-response","464","2.0.0","475953","p1mzf32delq","trex","603","stimuli/playground_10.jpg"," ","playground","I","repeat"," ","407","","","","","",""
"","","","","","image-keyboard-response","465","2.0.0","476956","p1mzf32delq","trex","null","stimuli/bar_67.jpg","null","bar","J","non-repeat","null","408","stimuli/bar_67.jpg","","","","",""
"","","","","","image-keyboard-response","466","2.0.0","477959","p1mzf32delq","trex","null","stimuli/gym_52.jpg","null","gym","K","non-repeat","null","409","stimuli/gym_52.jpg","","","","",""
"","","","","","image-keyboard-response","467","2.0.0","478964","p1mzf32delq","trex","null","stimuli/desert_50.jpg","null","desert","L","non-repeat","null","410","stimuli/desert_50.jpg","","","","",""
"","","","","","image-keyboard-response","468","2.0.0","479968","p1mzf32delq","trex","null","stimuli/stream_42.jpg","null","stream","G","non-repeat","null","411","stimuli/stream_42.jpg","","","","",""
"","","","","","image-keyboard-response","469","2.0.0","480972","p1mzf32delq","trex","null","stimuli/street_8.jpg","null","street","H","non-repeat","null","412","stimuli/street_8.jpg","","","","",""
"","","","","","image-keyboard-response","470","2.0.0","481976","p1mzf32delq","trex","null","stimuli/playground_10.jpg","null","playground","I","non-repeat","null","413","stimuli/playground_10.jpg","","","","",""
"","","","","","image-keyboard-response","471","2.0.0","482979","p1mzf32delq","trex","401","stimuli/playground_10.jpg"," ","playground","I","repeat"," ","413","","","","","",""
"","","","","","image-keyboard-response","472","2.0.0","483983","p1mzf32delq","trex","null","stimuli/bathroom_37.jpg","null","bathroom","A","non-repeat","null","414","stimuli/bathroom_37.jpg","","","","",""
"","","","","","image-keyboard-response","473","2.0.0","484987","p1mzf32delq","trex","null","stimuli/kitchen_50.jpg","null","kitchen","B","non-repeat","null","415","stimuli/kitchen_50.jpg","","","","",""
"","","","","","image-keyboard-response","474","2.0.0","485990","p1mzf32delq","trex","null","stimuli/field_54.jpg","null","field","C","non-repeat","null","416","stimuli/field_54.jpg","","","","",""
"","","","","","image-keyboard-response","475","2.0.0","486995","p1mzf32delq","trex","null","stimuli/bar_67.jpg","null","bar","J","non-repeat","null","417","stimuli/bar_67.jpg","","","","",""
"","","","","","image-keyboard-response","476","2.0.0","487998","p1mzf32delq","trex","null","stimuli/gym_52.jpg","null","gym","K","non-repeat","null","418","stimuli/gym_52.jpg","","","","",""
"","","","","","image-keyboard-response","477","2.0.0","489001","p1mzf32delq","trex","null","stimuli/desert_50.jpg","null","desert","L","non-repeat","null","419","stimuli/desert_50.jpg","","","","",""
"","","","","","image-keyboard-response","478","2.0.0","490005","p1mzf32delq","trex","null","stimuli/stream_42.jpg","null","stream","G","non-repeat","null","420","stimuli/stream_42.jpg","","","","",""
"","","","","","image-keyboard-response","479","2.0.0","491010","p1mzf32delq","trex","null","stimuli/street_8.jpg","null","street","H","non-repeat","null","421","stimuli/street_8.jpg","","","","",""
"","","","","","image-keyboard-response","480","2.0.0","492013","p1mzf32delq","trex","null","stimuli/playground_10.jpg","null","playground","I","non-repeat","null","422","stimuli/playground_10.jpg","","","","",""
"","","","","","image-keyboard-response","481","2.0.0","493016","p1mzf32delq","trex","null","stimuli/bathroom_37.jpg","null","bathroom","A","non-repeat","null","423","stimuli/bathroom_37.jpg","","","","",""
"","","","","","image-keyboard-response","482","2.0.0","494020","p1mzf32delq","trex","null","stimuli/kitchen_50.jpg","null","kitchen","B","non-repeat","null","424","stimuli/kitchen_50.jpg","","","","",""
"","","","","","image-keyboard-response","483","2.0.0","495024","p1mzf32delq","trex","null","stimuli/field_54.jpg","null","field","C","non-repeat","null","425","stimuli/field_54.jpg","","","","",""
"","","","","","image-keyboard-response","484","2.0.0","496027","p1mzf32delq","trex","null","stimuli/field_54.jpg","null","field","C","repeat"," ","425","","","","","",""
"","","","","","image-keyboard-response","485","2.0.0","497032","p1mzf32delq","trex","null","stimuli/stream_42.jpg","null","stream","G","non-repeat","null","426","stimuli/stream_42.jpg","","","","",""
"","","","","","image-keyboard-response","486","2.0.0","498035","p1mzf32delq","trex","null","stimuli/street_8.jpg","null","street","H","non-repeat","null","427","stimuli/street_8.jpg","","","","",""
"","","","","","image-keyboard-response","487","2.0.0","499039","p1mzf32delq","trex","null","stimuli/playground_10.jpg","null","playground","I","non-repeat","null","428","stimuli/playground_10.jpg","","","","",""
"","","","","","image-keyboard-response","488","2.0.0","500042","p1mzf32delq","trex","null","stimuli/bathroom_37.jpg","null","bathroom","A","non-repeat","null","429","stimuli/bathroom_37.jpg","","","","",""
"","","","","","image-keyboard-response","489","2.0.0","501046","p1mzf32delq","trex","null","stimuli/kitchen_50.jpg","null","kitchen","B","non-repeat","null","430","stimuli/kitchen_50.jpg","","","","",""
"","","","","","image-keyboard-response","490","2.0.0","502049","p1mzf32delq","trex","null","stimuli/field_54.jpg","null","field","C","non-repeat","null","431","stimuli/field_54.jpg","","","","",""
"","","","","","image-keyboard-response","491","2.0.0","503053","p1mzf32delq","trex","null","stimuli/stream_42.jpg","null","stream","G","non-repeat","null","432","stimuli/stream_42.jpg","","","","",""
"","","","","","image-keyboard-response","492","2.0.0","504058","p1mzf32delq","trex","null","stimuli/street_8.jpg","null","street","H","non-repeat","null","433","stimuli/street_8.jpg","","","","",""
"","","","","","image-keyboard-response","493","2.0.0","505062","p1mzf32delq","trex","null","stimuli/playground_10.jpg","null","playground","I","non-repeat","null","434","stimuli/playground_10.jpg","","","","",""
"","","","","","html-keyboard-response","494","2.0.0","519002","p1mzf32delq","trex","13938","
    <div style='width:900px;margin: auto;'><p>In the next part of the experiment, we want to see how well you learned the structure in the stream of images.</p>
    <p>On each trial, you will see two sequences of three images, sequence 1 and 2. We will ask you to indicate which sequence was more familiar based on the first part of the experiment.</p>
    <p>Press 1 if the first sequence (sequence 1) felt more familiar. Press 2 if the second sequence (sequence 2) felt more familiar.</p>
    <p>Press any key to begin.</p></div>"," ","","","","","","","","","","",""
"","","","","","html-keyboard-response","495","2.0.0","520005","p1mzf32delq","trex","null","<p>Sequence 1</p>","null","","","","","","","","","","",""
"","","","","","image-keyboard-response","496","2.0.0","521008","p1mzf32delq","trex","null","stimuli/bathroom_37.jpg","null","","","","","","","","","","",""
"","","","","","image-keyboard-response","497","2.0.0","522011","p1mzf32delq","trex","null","stimuli/woods_26.jpg","null","","","","","","","","","","",""
"","","","","","image-keyboard-response","498","2.0.0","523014","p1mzf32delq","trex","null","stimuli/playground_10.jpg","null","","","","","","","","","","",""
"","","","","","html-keyboard-response","499","2.0.0","524018","p1mzf32delq","trex","null","<p></p>","null","","","","","","","","","","",""
"","","","","","html-keyboard-response","500","2.0.0","525021","p1mzf32delq","trex","null","<p>Sequence 2</p>","null","","","","","","","","","","",""
"","","","","","image-keyboard-response","501","2.0.0","526024","p1mzf32delq","trex","null","stimuli/bathroom_37.jpg","null","","","","","","","","","","",""
"","","","","","image-keyboard-response","502","2.0.0","527027","p1mzf32delq","trex","null","stimuli/kitchen_50.jpg","null","","","","","","","","","","",""
"","","","","","image-keyboard-response","503","2.0.0","528030","p1mzf32delq","trex","null","stimuli/field_54.jpg","null","","","","","","","","","","",""
