"success","timeout","failed_images","failed_audio","failed_video","trial_type","trial_index","plugin_version","time_elapsed","random_id","participant","rt","stimulus","response","category","letter","correct_response","correct_response_key","trial_counter","current_image","test_triplet","foil_triplet","correct","firstSequencePaths","secondSequencePaths"
"true","false","[]","[]","[]","preload","0","2.0.0","295","p20xng64d9m","p73","","","","","","","","","","","","","",""
"true","","","","","fullscreen","1","null","2604","p20xng64d9m","p73","1304","","","","","","","","","","","","",""
"","","","","","html-keyboard-response","2","2.0.0","3347","p20xng64d9m","p73","741","Welcome to the experiment. Press any key to begin.","m","","","","","","","","","","",""
"","","","","","survey-text","3","2.0.0","21832","p20xng64d9m","p73","18478","","{""participant_id"":""p73""}","","","","","","","","","","",""
"","","","","","html-keyboard-response","4","2.0.0","31974","p20xng64d9m","p73","10140","
  <p>For this trial, you will see a series of images.</p>
  <p><b>Press the spacebar whenever you see the same image appear twice in a row.</b></p>
  <p>In other words, whenever the same image repeats back to back, press the spacebar.</p>
  <p>Press any key to begin.</p>"," ","","","","","","","","","","",""
"","","","","","image-keyboard-response","5","2.0.0","32978","p20xng64d9m","p73","null","stimuli/desert_4.jpg","null","desert","J","non-repeat","null","0","stimuli/desert_4.jpg","","","","",""
"","","","","","image-keyboard-response","6","2.0.0","33982","p20xng64d9m","p73","null","stimuli/woods_26.jpg","null","woods","K","non-repeat","null","1","stimuli/woods_26.jpg","","","","",""
"","","","","","image-keyboard-response","7","2.0.0","34987","p20xng64d9m","p73","null","stimuli/bridge_48.jpg","null","bridge","L","non-repeat","null","2","stimuli/bridge_48.jpg","","","","",""
"","","","","","image-keyboard-response","8","2.0.0","35991","p20xng64d9m","p73","null","stimuli/street_66.jpg","null","street","A","non-repeat","null","3","stimuli/street_66.jpg","","","","",""
"","","","","","image-keyboard-response","9","2.0.0","36995","p20xng64d9m","p73","null","stimuli/gym_67.jpg","null","gym","B","non-repeat","null","4","stimuli/gym_67.jpg","","","","",""
"","","","","","image-keyboard-response","10","2.0.0","37999","p20xng64d9m","p73","null","stimuli/kitchen_6.jpg","null","kitchen","C","non-repeat","null","5","stimuli/kitchen_6.jpg","","","","",""
"","","","","","image-keyboard-response","11","2.0.0","39003","p20xng64d9m","p73","559","stimuli/kitchen_6.jpg"," ","kitchen","C","repeat"," ","5","","","","","",""
"","","","","","image-keyboard-response","12","2.0.0","40006","p20xng64d9m","p73","null","stimuli/bathroom_36.jpg","null","bathroom","D","non-repeat","null","6","stimuli/bathroom_36.jpg","","","","",""
"","","","","","image-keyboard-response","13","2.0.0","41010","p20xng64d9m","p73","null","stimuli/field_49.jpg","null","field","E","non-repeat","null","7","stimuli/field_49.jpg","","","","",""
"","","","","","image-keyboard-response","14","2.0.0","42015","p20xng64d9m","p73","null","stimuli/coast_42.jpg","null","coast","F","non-repeat","null","8","stimuli/coast_42.jpg","","","","",""
"","","","","","image-keyboard-response","15","2.0.0","43018","p20xng64d9m","p73","null","stimuli/desert_4.jpg","null","desert","J","non-repeat","null","9","stimuli/desert_4.jpg","","","","",""
"","","","","","image-keyboard-response","16","2.0.0","44023","p20xng64d9m","p73","null","stimuli/woods_26.jpg","null","woods","K","non-repeat","null","10","stimuli/woods_26.jpg","","","","",""
"","","","","","image-keyboard-response","17","2.0.0","45027","p20xng64d9m","p73","null","stimuli/bridge_48.jpg","null","bridge","L","non-repeat","null","11","stimuli/bridge_48.jpg","","","","",""
"","","","","","image-keyboard-response","18","2.0.0","46031","p20xng64d9m","p73","708","stimuli/bridge_48.jpg"," ","bridge","L","repeat"," ","11","","","","","",""
"","","","","","image-keyboard-response","19","2.0.0","47035","p20xng64d9m","p73","null","stimuli/playground_11.jpg","null","playground","G","non-repeat","null","12","stimuli/playground_11.jpg","","","","",""
"","","","","","image-keyboard-response","20","2.0.0","48037","p20xng64d9m","p73","null","stimuli/bar_29.jpg","null","bar","H","non-repeat","null","13","stimuli/bar_29.jpg","","","","",""
"","","","","","image-keyboard-response","21","2.0.0","49040","p20xng64d9m","p73","null","stimuli/stream_50.jpg","null","stream","I","non-repeat","null","14","stimuli/stream_50.jpg","","","","",""
"","","","","","image-keyboard-response","22","2.0.0","50043","p20xng64d9m","p73","710","stimuli/stream_50.jpg"," ","stream","I","repeat"," ","14","","","","","",""
"","","","","","image-keyboard-response","23","2.0.0","51045","p20xng64d9m","p73","null","stimuli/desert_4.jpg","null","desert","J","non-repeat","null","15","stimuli/desert_4.jpg","","","","",""
"","","","","","image-keyboard-response","24","2.0.0","52048","p20xng64d9m","p73","null","stimuli/woods_26.jpg","null","woods","K","non-repeat","null","16","stimuli/woods_26.jpg","","","","",""
"","","","","","image-keyboard-response","25","2.0.0","53052","p20xng64d9m","p73","null","stimuli/bridge_48.jpg","null","bridge","L","non-repeat","null","17","stimuli/bridge_48.jpg","","","","",""
"","","","","","image-keyboard-response","26","2.0.0","54056","p20xng64d9m","p73","511","stimuli/bridge_48.jpg"," ","bridge","L","repeat"," ","17","","","","","",""
"","","","","","image-keyboard-response","27","2.0.0","55061","p20xng64d9m","p73","null","stimuli/playground_11.jpg","null","playground","G","non-repeat","null","18","stimuli/playground_11.jpg","","","","",""
"","","","","","image-keyboard-response","28","2.0.0","56065","p20xng64d9m","p73","null","stimuli/bar_29.jpg","null","bar","H","non-repeat","null","19","stimuli/bar_29.jpg","","","","",""
"","","","","","image-keyboard-response","29","2.0.0","57069","p20xng64d9m","p73","null","stimuli/stream_50.jpg","null","stream","I","non-repeat","null","20","stimuli/stream_50.jpg","","","","",""
"","","","","","image-keyboard-response","30","2.0.0","58072","p20xng64d9m","p73","null","stimuli/bathroom_36.jpg","null","bathroom","D","non-repeat","null","21","stimuli/bathroom_36.jpg","","","","",""
"","","","","","image-keyboard-response","31","2.0.0","59076","p20xng64d9m","p73","null","stimuli/field_49.jpg","null","field","E","non-repeat","null","22","stimuli/field_49.jpg","","","","",""
"","","","","","image-keyboard-response","32","2.0.0","60081","p20xng64d9m","p73","null","stimuli/coast_42.jpg","null","coast","F","non-repeat","null","23","stimuli/coast_42.jpg","","","","",""
"","","","","","image-keyboard-response","33","2.0.0","61083","p20xng64d9m","p73","null","stimuli/desert_4.jpg","null","desert","J","non-repeat","null","24","stimuli/desert_4.jpg","","","","",""
"","","","","","image-keyboard-response","34","2.0.0","62087","p20xng64d9m","p73","null","stimuli/woods_26.jpg","null","woods","K","non-repeat","null","25","stimuli/woods_26.jpg","","","","",""
"","","","","","image-keyboard-response","35","2.0.0","63091","p20xng64d9m","p73","null","stimuli/bridge_48.jpg","null","bridge","L","non-repeat","null","26","stimuli/bridge_48.jpg","","","","",""
"","","","","","image-keyboard-response","36","2.0.0","64096","p20xng64d9m","p73","446","stimuli/bridge_48.jpg"," ","bridge","L","repeat"," ","26","","","","","",""
"","","","","","image-keyboard-response","37","2.0.0","65099","p20xng64d9m","p73","null","stimuli/bathroom_36.jpg","null","bathroom","D","non-repeat","null","27","stimuli/bathroom_36.jpg","","","","",""
"","","","","","image-keyboard-response","38","2.0.0","66103","p20xng64d9m","p73","null","stimuli/field_49.jpg","null","field","E","non-repeat","null","28","stimuli/field_49.jpg","","","","",""
"","","","","","image-keyboard-response","39","2.0.0","67106","p20xng64d9m","p73","null","stimuli/coast_42.jpg","null","coast","F","non-repeat","null","29","stimuli/coast_42.jpg","","","","",""
"","","","","","image-keyboard-response","40","2.0.0","68111","p20xng64d9m","p73","null","stimuli/desert_4.jpg","null","desert","J","non-repeat","null","30","stimuli/desert_4.jpg","","","","",""
"","","","","","image-keyboard-response","41","2.0.0","69115","p20xng64d9m","p73","null","stimuli/woods_26.jpg","null","woods","K","non-repeat","null","31","stimuli/woods_26.jpg","","","","",""
"","","","","","image-keyboard-response","42","2.0.0","70119","p20xng64d9m","p73","null","stimuli/bridge_48.jpg","null","bridge","L","non-repeat","null","32","stimuli/bridge_48.jpg","","","","",""
"","","","","","image-keyboard-response","43","2.0.0","71123","p20xng64d9m","p73","null","stimuli/street_66.jpg","null","street","A","non-repeat","null","33","stimuli/street_66.jpg","","","","",""
"","","","","","image-keyboard-response","44","2.0.0","72126","p20xng64d9m","p73","null","stimuli/gym_67.jpg","null","gym","B","non-repeat","null","34","stimuli/gym_67.jpg","","","","",""
"","","","","","image-keyboard-response","45","2.0.0","73130","p20xng64d9m","p73","null","stimuli/kitchen_6.jpg","null","kitchen","C","non-repeat","null","35","stimuli/kitchen_6.jpg","","","","",""
"","","","","","image-keyboard-response","46","2.0.0","74135","p20xng64d9m","p73","null","stimuli/kitchen_6.jpg","null","kitchen","C","repeat"," ","35","","","","","",""
"","","","","","image-keyboard-response","47","2.0.0","75139","p20xng64d9m","p73","null","stimuli/bathroom_36.jpg","null","bathroom","D","non-repeat","null","36","stimuli/bathroom_36.jpg","","","","",""
"","","","","","image-keyboard-response","48","2.0.0","76142","p20xng64d9m","p73","null","stimuli/field_49.jpg","null","field","E","non-repeat","null","37","stimuli/field_49.jpg","","","","",""
"","","","","","image-keyboard-response","49","2.0.0","77146","p20xng64d9m","p73","null","stimuli/coast_42.jpg","null","coast","F","non-repeat","null","38","stimuli/coast_42.jpg","","","","",""
"","","","","","image-keyboard-response","50","2.0.0","78149","p20xng64d9m","p73","null","stimuli/playground_11.jpg","null","playground","G","non-repeat","null","39","stimuli/playground_11.jpg","","","","",""
"","","","","","image-keyboard-response","51","2.0.0","79153","p20xng64d9m","p73","null","stimuli/bar_29.jpg","null","bar","H","non-repeat","null","40","stimuli/bar_29.jpg","","","","",""
"","","","","","image-keyboard-response","52","2.0.0","80156","p20xng64d9m","p73","null","stimuli/stream_50.jpg","null","stream","I","non-repeat","null","41","stimuli/stream_50.jpg","","","","",""
"","","","","","image-keyboard-response","53","2.0.0","81160","p20xng64d9m","p73","null","stimuli/bathroom_36.jpg","null","bathroom","D","non-repeat","null","42","stimuli/bathroom_36.jpg","","","","",""
"","","","","","image-keyboard-response","54","2.0.0","82163","p20xng64d9m","p73","null","stimuli/field_49.jpg","null","field","E","non-repeat","null","43","stimuli/field_49.jpg","","","","",""
"","","","","","image-keyboard-response","55","2.0.0","83173","p20xng64d9m","p73","null","stimuli/coast_42.jpg","null","coast","F","non-repeat","null","44","stimuli/coast_42.jpg","","","","",""
"","","","","","image-keyboard-response","56","2.0.0","84177","p20xng64d9m","p73","null","stimuli/desert_4.jpg","null","desert","J","non-repeat","null","45","stimuli/desert_4.jpg","","","","",""
"","","","","","image-keyboard-response","57","2.0.0","85181","p20xng64d9m","p73","null","stimuli/woods_26.jpg","null","woods","K","non-repeat","null","46","stimuli/woods_26.jpg","","","","",""
"","","","","","image-keyboard-response","58","2.0.0","86185","p20xng64d9m","p73","null","stimuli/bridge_48.jpg","null","bridge","L","non-repeat","null","47","stimuli/bridge_48.jpg","","","","",""
"","","","","","image-keyboard-response","59","2.0.0","87188","p20xng64d9m","p73","null","stimuli/street_66.jpg","null","street","A","non-repeat","null","48","stimuli/street_66.jpg","","","","",""
"","","","","","image-keyboard-response","60","2.0.0","88193","p20xng64d9m","p73","null","stimuli/gym_67.jpg","null","gym","B","non-repeat","null","49","stimuli/gym_67.jpg","","","","",""
"","","","","","image-keyboard-response","61","2.0.0","89197","p20xng64d9m","p73","null","stimuli/kitchen_6.jpg","null","kitchen","C","non-repeat","null","50","stimuli/kitchen_6.jpg","","","","",""
"","","","","","image-keyboard-response","62","2.0.0","90200","p20xng64d9m","p73","null","stimuli/playground_11.jpg","null","playground","G","non-repeat","null","51","stimuli/playground_11.jpg","","","","",""
"","","","","","image-keyboard-response","63","2.0.0","91204","p20xng64d9m","p73","null","stimuli/bar_29.jpg","null","bar","H","non-repeat","null","52","stimuli/bar_29.jpg","","","","",""
"","","","","","image-keyboard-response","64","2.0.0","92208","p20xng64d9m","p73","null","stimuli/stream_50.jpg","null","stream","I","non-repeat","null","53","stimuli/stream_50.jpg","","","","",""
"","","","","","image-keyboard-response","65","2.0.0","93211","p20xng64d9m","p73","null","stimuli/street_66.jpg","null","street","A","non-repeat","null","54","stimuli/street_66.jpg","","","","",""
"","","","","","image-keyboard-response","66","2.0.0","94215","p20xng64d9m","p73","null","stimuli/gym_67.jpg","null","gym","B","non-repeat","null","55","stimuli/gym_67.jpg","","","","",""
"","","","","","image-keyboard-response","67","2.0.0","95219","p20xng64d9m","p73","null","stimuli/kitchen_6.jpg","null","kitchen","C","non-repeat","null","56","stimuli/kitchen_6.jpg","","","","",""
"","","","","","image-keyboard-response","68","2.0.0","96223","p20xng64d9m","p73","null","stimuli/desert_4.jpg","null","desert","J","non-repeat","null","57","stimuli/desert_4.jpg","","","","",""
"","","","","","image-keyboard-response","69","2.0.0","97226","p20xng64d9m","p73","null","stimuli/woods_26.jpg","null","woods","K","non-repeat","null","58","stimuli/woods_26.jpg","","","","",""
"","","","","","image-keyboard-response","70","2.0.0","98231","p20xng64d9m","p73","null","stimuli/bridge_48.jpg","null","bridge","L","non-repeat","null","59","stimuli/bridge_48.jpg","","","","",""
"","","","","","image-keyboard-response","71","2.0.0","99235","p20xng64d9m","p73","null","stimuli/street_66.jpg","null","street","A","non-repeat","null","60","stimuli/street_66.jpg","","","","",""
"","","","","","image-keyboard-response","72","2.0.0","100240","p20xng64d9m","p73","null","stimuli/gym_67.jpg","null","gym","B","non-repeat","null","61","stimuli/gym_67.jpg","","","","",""
"","","","","","image-keyboard-response","73","2.0.0","101244","p20xng64d9m","p73","null","stimuli/kitchen_6.jpg","null","kitchen","C","non-repeat","null","62","stimuli/kitchen_6.jpg","","","","",""
"","","","","","image-keyboard-response","74","2.0.0","102248","p20xng64d9m","p73","420","stimuli/kitchen_6.jpg"," ","kitchen","C","repeat"," ","62","","","","","",""
"","","","","","image-keyboard-response","75","2.0.0","103253","p20xng64d9m","p73","null","stimuli/playground_11.jpg","null","playground","G","non-repeat","null","63","stimuli/playground_11.jpg","","","","",""
"","","","","","image-keyboard-response","76","2.0.0","104256","p20xng64d9m","p73","807","stimuli/playground_11.jpg"," ","playground","G","repeat"," ","63","","","","","",""
"","","","","","image-keyboard-response","77","2.0.0","105261","p20xng64d9m","p73","null","stimuli/bar_29.jpg","null","bar","H","non-repeat","null","64","stimuli/bar_29.jpg","","","","",""
"","","","","","image-keyboard-response","78","2.0.0","106265","p20xng64d9m","p73","null","stimuli/stream_50.jpg","null","stream","I","non-repeat","null","65","stimuli/stream_50.jpg","","","","",""
"","","","","","image-keyboard-response","79","2.0.0","107269","p20xng64d9m","p73","null","stimuli/street_66.jpg","null","street","A","non-repeat","null","66","stimuli/street_66.jpg","","","","",""
"","","","","","image-keyboard-response","80","2.0.0","108272","p20xng64d9m","p73","null","stimuli/gym_67.jpg","null","gym","B","non-repeat","null","67","stimuli/gym_67.jpg","","","","",""
"","","","","","image-keyboard-response","81","2.0.0","109277","p20xng64d9m","p73","null","stimuli/kitchen_6.jpg","null","kitchen","C","non-repeat","null","68","stimuli/kitchen_6.jpg","","","","",""
"","","","","","image-keyboard-response","82","2.0.0","110281","p20xng64d9m","p73","null","stimuli/desert_4.jpg","null","desert","J","non-repeat","null","69","stimuli/desert_4.jpg","","","","",""
"","","","","","image-keyboard-response","83","2.0.0","111284","p20xng64d9m","p73","null","stimuli/woods_26.jpg","null","woods","K","non-repeat","null","70","stimuli/woods_26.jpg","","","","",""
"","","","","","image-keyboard-response","84","2.0.0","112288","p20xng64d9m","p73","null","stimuli/bridge_48.jpg","null","bridge","L","non-repeat","null","71","stimuli/bridge_48.jpg","","","","",""
"","","","","","image-keyboard-response","85","2.0.0","113291","p20xng64d9m","p73","null","stimuli/playground_11.jpg","null","playground","G","non-repeat","null","72","stimuli/playground_11.jpg","","","","",""
"","","","","","image-keyboard-response","86","2.0.0","114294","p20xng64d9m","p73","null","stimuli/bar_29.jpg","null","bar","H","non-repeat","null","73","stimuli/bar_29.jpg","","","","",""
"","","","","","image-keyboard-response","87","2.0.0","115299","p20xng64d9m","p73","null","stimuli/stream_50.jpg","null","stream","I","non-repeat","null","74","stimuli/stream_50.jpg","","","","",""
"","","","","","image-keyboard-response","88","2.0.0","116303","p20xng64d9m","p73","null","stimuli/street_66.jpg","null","street","A","non-repeat","null","75","stimuli/street_66.jpg","","","","",""
"","","","","","image-keyboard-response","89","2.0.0","117307","p20xng64d9m","p73","null","stimuli/gym_67.jpg","null","gym","B","non-repeat","null","76","stimuli/gym_67.jpg","","","","",""
"","","","","","image-keyboard-response","90","2.0.0","118311","p20xng64d9m","p73","null","stimuli/kitchen_6.jpg","null","kitchen","C","non-repeat","null","77","stimuli/kitchen_6.jpg","","","","",""
"","","","","","image-keyboard-response","91","2.0.0","119315","p20xng64d9m","p73","460","stimuli/kitchen_6.jpg"," ","kitchen","C","repeat"," ","77","","","","","",""
"","","","","","image-keyboard-response","92","2.0.0","120319","p20xng64d9m","p73","null","stimuli/desert_4.jpg","null","desert","J","non-repeat","null","78","stimuli/desert_4.jpg","","","","",""
"","","","","","image-keyboard-response","93","2.0.0","121322","p20xng64d9m","p73","null","stimuli/woods_26.jpg","null","woods","K","non-repeat","null","79","stimuli/woods_26.jpg","","","","",""
"","","","","","image-keyboard-response","94","2.0.0","122327","p20xng64d9m","p73","null","stimuli/bridge_48.jpg","null","bridge","L","non-repeat","null","80","stimuli/bridge_48.jpg","","","","",""
"","","","","","image-keyboard-response","95","2.0.0","123331","p20xng64d9m","p73","null","stimuli/bathroom_36.jpg","null","bathroom","D","non-repeat","null","81","stimuli/bathroom_36.jpg","","","","",""
"","","","","","image-keyboard-response","96","2.0.0","124334","p20xng64d9m","p73","838","stimuli/bathroom_36.jpg"," ","bathroom","D","repeat"," ","81","","","","","",""
"","","","","","image-keyboard-response","97","2.0.0","125338","p20xng64d9m","p73","null","stimuli/field_49.jpg","null","field","E","non-repeat","null","82","stimuli/field_49.jpg","","","","",""
"","","","","","image-keyboard-response","98","2.0.0","126341","p20xng64d9m","p73","null","stimuli/coast_42.jpg","null","coast","F","non-repeat","null","83","stimuli/coast_42.jpg","","","","",""
"","","","","","image-keyboard-response","99","2.0.0","127345","p20xng64d9m","p73","764","stimuli/coast_42.jpg"," ","coast","F","repeat"," ","83","","","","","",""
"","","","","","image-keyboard-response","100","2.0.0","128349","p20xng64d9m","p73","null","stimuli/desert_4.jpg","null","desert","J","non-repeat","null","84","stimuli/desert_4.jpg","","","","",""
"","","","","","image-keyboard-response","101","2.0.0","129353","p20xng64d9m","p73","null","stimuli/woods_26.jpg","null","woods","K","non-repeat","null","85","stimuli/woods_26.jpg","","","","",""
"","","","","","image-keyboard-response","102","2.0.0","130357","p20xng64d9m","p73","null","stimuli/bridge_48.jpg","null","bridge","L","non-repeat","null","86","stimuli/bridge_48.jpg","","","","",""
"","","","","","image-keyboard-response","103","2.0.0","131361","p20xng64d9m","p73","null","stimuli/bathroom_36.jpg","null","bathroom","D","non-repeat","null","87","stimuli/bathroom_36.jpg","","","","",""
"","","","","","image-keyboard-response","104","2.0.0","132368","p20xng64d9m","p73","null","stimuli/field_49.jpg","null","field","E","non-repeat","null","88","stimuli/field_49.jpg","","","","",""
"","","","","","image-keyboard-response","105","2.0.0","133373","p20xng64d9m","p73","null","stimuli/coast_42.jpg","null","coast","F","non-repeat","null","89","stimuli/coast_42.jpg","","","","",""
"","","","","","image-keyboard-response","106","2.0.0","134378","p20xng64d9m","p73","null","stimuli/desert_4.jpg","null","desert","J","non-repeat","null","90","stimuli/desert_4.jpg","","","","",""
"","","","","","image-keyboard-response","107","2.0.0","135382","p20xng64d9m","p73","null","stimuli/desert_4.jpg","null","desert","J","repeat"," ","90","","","","","",""
"","","","","","image-keyboard-response","108","2.0.0","136386","p20xng64d9m","p73","null","stimuli/woods_26.jpg","null","woods","K","non-repeat","null","91","stimuli/woods_26.jpg","","","","",""
"","","","","","image-keyboard-response","109","2.0.0","137391","p20xng64d9m","p73","null","stimuli/bridge_48.jpg","null","bridge","L","non-repeat","null","92","stimuli/bridge_48.jpg","","","","",""
"","","","","","image-keyboard-response","110","2.0.0","138395","p20xng64d9m","p73","null","stimuli/street_66.jpg","null","street","A","non-repeat","null","93","stimuli/street_66.jpg","","","","",""
"","","","","","image-keyboard-response","111","2.0.0","139405","p20xng64d9m","p73","null","stimuli/gym_67.jpg","null","gym","B","non-repeat","null","94","stimuli/gym_67.jpg","","","","",""
"","","","","","image-keyboard-response","112","2.0.0","140409","p20xng64d9m","p73","null","stimuli/kitchen_6.jpg","null","kitchen","C","non-repeat","null","95","stimuli/kitchen_6.jpg","","","","",""
"","","","","","image-keyboard-response","113","2.0.0","141414","p20xng64d9m","p73","null","stimuli/bathroom_36.jpg","null","bathroom","D","non-repeat","null","96","stimuli/bathroom_36.jpg","","","","",""
"","","","","","image-keyboard-response","114","2.0.0","142418","p20xng64d9m","p73","710","stimuli/bathroom_36.jpg"," ","bathroom","D","repeat"," ","96","","","","","",""
"","","","","","image-keyboard-response","115","2.0.0","143422","p20xng64d9m","p73","null","stimuli/field_49.jpg","null","field","E","non-repeat","null","97","stimuli/field_49.jpg","","","","",""
"","","","","","image-keyboard-response","116","2.0.0","144426","p20xng64d9m","p73","null","stimuli/coast_42.jpg","null","coast","F","non-repeat","null","98","stimuli/coast_42.jpg","","","","",""
"","","","","","image-keyboard-response","117","2.0.0","145430","p20xng64d9m","p73","null","stimuli/street_66.jpg","null","street","A","non-repeat","null","99","stimuli/street_66.jpg","","","","",""
"","","","","","image-keyboard-response","118","2.0.0","146435","p20xng64d9m","p73","null","stimuli/gym_67.jpg","null","gym","B","non-repeat","null","100","stimuli/gym_67.jpg","","","","",""
"","","","","","image-keyboard-response","119","2.0.0","147439","p20xng64d9m","p73","null","stimuli/kitchen_6.jpg","null","kitchen","C","non-repeat","null","101","stimuli/kitchen_6.jpg","","","","",""
"","","","","","image-keyboard-response","120","2.0.0","148443","p20xng64d9m","p73","null","stimuli/bathroom_36.jpg","null","bathroom","D","non-repeat","null","102","stimuli/bathroom_36.jpg","","","","",""
"","","","","","image-keyboard-response","121","2.0.0","149447","p20xng64d9m","p73","942","stimuli/bathroom_36.jpg"," ","bathroom","D","repeat"," ","102","","","","","",""
"","","","","","image-keyboard-response","122","2.0.0","150451","p20xng64d9m","p73","null","stimuli/field_49.jpg","null","field","E","non-repeat","null","103","stimuli/field_49.jpg","","","","",""
"","","","","","image-keyboard-response","123","2.0.0","151455","p20xng64d9m","p73","null","stimuli/coast_42.jpg","null","coast","F","non-repeat","null","104","stimuli/coast_42.jpg","","","","",""
"","","","","","image-keyboard-response","124","2.0.0","152458","p20xng64d9m","p73","null","stimuli/street_66.jpg","null","street","A","non-repeat","null","105","stimuli/street_66.jpg","","","","",""
"","","","","","image-keyboard-response","125","2.0.0","153462","p20xng64d9m","p73","484","stimuli/street_66.jpg"," ","street","A","repeat"," ","105","","","","","",""
"","","","","","image-keyboard-response","126","2.0.0","154467","p20xng64d9m","p73","null","stimuli/gym_67.jpg","null","gym","B","non-repeat","null","106","stimuli/gym_67.jpg","","","","",""
"","","","","","image-keyboard-response","127","2.0.0","155471","p20xng64d9m","p73","null","stimuli/kitchen_6.jpg","null","kitchen","C","non-repeat","null","107","stimuli/kitchen_6.jpg","","","","",""
"","","","","","image-keyboard-response","128","2.0.0","156475","p20xng64d9m","p73","null","stimuli/playground_11.jpg","null","playground","G","non-repeat","null","108","stimuli/playground_11.jpg","","","","",""
"","","","","","image-keyboard-response","129","2.0.0","157478","p20xng64d9m","p73","null","stimuli/bar_29.jpg","null","bar","H","non-repeat","null","109","stimuli/bar_29.jpg","","","","",""
"","","","","","image-keyboard-response","130","2.0.0","158482","p20xng64d9m","p73","null","stimuli/stream_50.jpg","null","stream","I","non-repeat","null","110","stimuli/stream_50.jpg","","","","",""
"","","","","","image-keyboard-response","131","2.0.0","159486","p20xng64d9m","p73","646","stimuli/stream_50.jpg"," ","stream","I","repeat"," ","110","","","","","",""
"","","","","","image-keyboard-response","132","2.0.0","160489","p20xng64d9m","p73","null","stimuli/desert_4.jpg","null","desert","J","non-repeat","null","111","stimuli/desert_4.jpg","","","","",""
"","","","","","image-keyboard-response","133","2.0.0","161493","p20xng64d9m","p73","null","stimuli/woods_26.jpg","null","woods","K","non-repeat","null","112","stimuli/woods_26.jpg","","","","",""
"","","","","","image-keyboard-response","134","2.0.0","162498","p20xng64d9m","p73","null","stimuli/bridge_48.jpg","null","bridge","L","non-repeat","null","113","stimuli/bridge_48.jpg","","","","",""
"","","","","","image-keyboard-response","135","2.0.0","163501","p20xng64d9m","p73","null","stimuli/bathroom_36.jpg","null","bathroom","D","non-repeat","null","114","stimuli/bathroom_36.jpg","","","","",""
"","","","","","image-keyboard-response","136","2.0.0","164506","p20xng64d9m","p73","715","stimuli/bathroom_36.jpg"," ","bathroom","D","repeat"," ","114","","","","","",""
"","","","","","image-keyboard-response","137","2.0.0","165511","p20xng64d9m","p73","null","stimuli/field_49.jpg","null","field","E","non-repeat","null","115","stimuli/field_49.jpg","","","","",""
"","","","","","image-keyboard-response","138","2.0.0","166514","p20xng64d9m","p73","null","stimuli/coast_42.jpg","null","coast","F","non-repeat","null","116","stimuli/coast_42.jpg","","","","",""
"","","","","","image-keyboard-response","139","2.0.0","167518","p20xng64d9m","p73","null","stimuli/playground_11.jpg","null","playground","G","non-repeat","null","117","stimuli/playground_11.jpg","","","","",""
"","","","","","image-keyboard-response","140","2.0.0","168523","p20xng64d9m","p73","null","stimuli/bar_29.jpg","null","bar","H","non-repeat","null","118","stimuli/bar_29.jpg","","","","",""
"","","","","","image-keyboard-response","141","2.0.0","169527","p20xng64d9m","p73","null","stimuli/stream_50.jpg","null","stream","I","non-repeat","null","119","stimuli/stream_50.jpg","","","","",""
"","","","","","image-keyboard-response","142","2.0.0","170531","p20xng64d9m","p73","563","stimuli/stream_50.jpg"," ","stream","I","repeat"," ","119","","","","","",""
"","","","","","image-keyboard-response","143","2.0.0","171535","p20xng64d9m","p73","null","stimuli/street_66.jpg","null","street","A","non-repeat","null","120","stimuli/street_66.jpg","","","","",""
"","","","","","image-keyboard-response","144","2.0.0","172540","p20xng64d9m","p73","null","stimuli/gym_67.jpg","null","gym","B","non-repeat","null","121","stimuli/gym_67.jpg","","","","",""
"","","","","","image-keyboard-response","145","2.0.0","173544","p20xng64d9m","p73","null","stimuli/kitchen_6.jpg","null","kitchen","C","non-repeat","null","122","stimuli/kitchen_6.jpg","","","","",""
"","","","","","image-keyboard-response","146","2.0.0","174547","p20xng64d9m","p73","638","stimuli/kitchen_6.jpg"," ","kitchen","C","repeat"," ","122","","","","","",""
"","","","","","image-keyboard-response","147","2.0.0","175552","p20xng64d9m","p73","null","stimuli/bathroom_36.jpg","null","bathroom","D","non-repeat","null","123","stimuli/bathroom_36.jpg","","","","",""
"","","","","","image-keyboard-response","148","2.0.0","176557","p20xng64d9m","p73","550","stimuli/bathroom_36.jpg"," ","bathroom","D","repeat"," ","123","","","","","",""
"","","","","","image-keyboard-response","149","2.0.0","177561","p20xng64d9m","p73","null","stimuli/field_49.jpg","null","field","E","non-repeat","null","124","stimuli/field_49.jpg","","","","",""
"","","","","","image-keyboard-response","150","2.0.0","178565","p20xng64d9m","p73","null","stimuli/coast_42.jpg","null","coast","F","non-repeat","null","125","stimuli/coast_42.jpg","","","","",""
"","","","","","image-keyboard-response","151","2.0.0","179569","p20xng64d9m","p73","null","stimuli/desert_4.jpg","null","desert","J","non-repeat","null","126","stimuli/desert_4.jpg","","","","",""
"","","","","","image-keyboard-response","152","2.0.0","180573","p20xng64d9m","p73","null","stimuli/woods_26.jpg","null","woods","K","non-repeat","null","127","stimuli/woods_26.jpg","","","","",""
"","","","","","image-keyboard-response","153","2.0.0","181577","p20xng64d9m","p73","null","stimuli/bridge_48.jpg","null","bridge","L","non-repeat","null","128","stimuli/bridge_48.jpg","","","","",""
"","","","","","image-keyboard-response","154","2.0.0","182581","p20xng64d9m","p73","null","stimuli/street_66.jpg","null","street","A","non-repeat","null","129","stimuli/street_66.jpg","","","","",""
"","","","","","image-keyboard-response","155","2.0.0","183585","p20xng64d9m","p73","null","stimuli/street_66.jpg","null","street","A","repeat"," ","129","","","","","",""
"","","","","","image-keyboard-response","156","2.0.0","184589","p20xng64d9m","p73","null","stimuli/gym_67.jpg","null","gym","B","non-repeat","null","130","stimuli/gym_67.jpg","","","","",""
"","","","","","image-keyboard-response","157","2.0.0","185593","p20xng64d9m","p73","null","stimuli/kitchen_6.jpg","null","kitchen","C","non-repeat","null","131","stimuli/kitchen_6.jpg","","","","",""
"","","","","","image-keyboard-response","158","2.0.0","186597","p20xng64d9m","p73","null","stimuli/playground_11.jpg","null","playground","G","non-repeat","null","132","stimuli/playground_11.jpg","","","","",""
"","","","","","image-keyboard-response","159","2.0.0","187601","p20xng64d9m","p73","852","stimuli/playground_11.jpg"," ","playground","G","repeat"," ","132","","","","","",""
"","","","","","image-keyboard-response","160","2.0.0","188605","p20xng64d9m","p73","null","stimuli/bar_29.jpg","null","bar","H","non-repeat","null","133","stimuli/bar_29.jpg","","","","",""
"","","","","","image-keyboard-response","161","2.0.0","189609","p20xng64d9m","p73","null","stimuli/stream_50.jpg","null","stream","I","non-repeat","null","134","stimuli/stream_50.jpg","","","","",""
"","","","","","image-keyboard-response","162","2.0.0","190613","p20xng64d9m","p73","null","stimuli/desert_4.jpg","null","desert","J","non-repeat","null","135","stimuli/desert_4.jpg","","","","",""
"","","","","","image-keyboard-response","163","2.0.0","191623","p20xng64d9m","p73","null","stimuli/woods_26.jpg","null","woods","K","non-repeat","null","136","stimuli/woods_26.jpg","","","","",""
"","","","","","image-keyboard-response","164","2.0.0","192627","p20xng64d9m","p73","null","stimuli/bridge_48.jpg","null","bridge","L","non-repeat","null","137","stimuli/bridge_48.jpg","","","","",""
"","","","","","image-keyboard-response","165","2.0.0","193631","p20xng64d9m","p73","null","stimuli/street_66.jpg","null","street","A","non-repeat","null","138","stimuli/street_66.jpg","","","","",""
"","","","","","image-keyboard-response","166","2.0.0","194635","p20xng64d9m","p73","null","stimuli/gym_67.jpg","null","gym","B","non-repeat","null","139","stimuli/gym_67.jpg","","","","",""
"","","","","","image-keyboard-response","167","2.0.0","195639","p20xng64d9m","p73","null","stimuli/kitchen_6.jpg","null","kitchen","C","non-repeat","null","140","stimuli/kitchen_6.jpg","","","","",""
"","","","","","image-keyboard-response","168","2.0.0","196643","p20xng64d9m","p73","null","stimuli/bathroom_36.jpg","null","bathroom","D","non-repeat","null","141","stimuli/bathroom_36.jpg","","","","",""
"","","","","","image-keyboard-response","169","2.0.0","197647","p20xng64d9m","p73","null","stimuli/field_49.jpg","null","field","E","non-repeat","null","142","stimuli/field_49.jpg","","","","",""
"","","","","","image-keyboard-response","170","2.0.0","198651","p20xng64d9m","p73","null","stimuli/coast_42.jpg","null","coast","F","non-repeat","null","143","stimuli/coast_42.jpg","","","","",""
"","","","","","image-keyboard-response","171","2.0.0","199654","p20xng64d9m","p73","null","stimuli/desert_4.jpg","null","desert","J","non-repeat","null","144","stimuli/desert_4.jpg","","","","",""
"","","","","","image-keyboard-response","172","2.0.0","200658","p20xng64d9m","p73","null","stimuli/woods_26.jpg","null","woods","K","non-repeat","null","145","stimuli/woods_26.jpg","","","","",""
"","","","","","image-keyboard-response","173","2.0.0","201663","p20xng64d9m","p73","null","stimuli/bridge_48.jpg","null","bridge","L","non-repeat","null","146","stimuli/bridge_48.jpg","","","","",""
"","","","","","image-keyboard-response","174","2.0.0","202668","p20xng64d9m","p73","null","stimuli/bathroom_36.jpg","null","bathroom","D","non-repeat","null","147","stimuli/bathroom_36.jpg","","","","",""
"","","","","","image-keyboard-response","175","2.0.0","203671","p20xng64d9m","p73","681","stimuli/bathroom_36.jpg"," ","bathroom","D","repeat"," ","147","","","","","",""
"","","","","","image-keyboard-response","176","2.0.0","204676","p20xng64d9m","p73","null","stimuli/field_49.jpg","null","field","E","non-repeat","null","148","stimuli/field_49.jpg","","","","",""
"","","","","","image-keyboard-response","177","2.0.0","205679","p20xng64d9m","p73","null","stimuli/coast_42.jpg","null","coast","F","non-repeat","null","149","stimuli/coast_42.jpg","","","","",""
"","","","","","image-keyboard-response","178","2.0.0","206682","p20xng64d9m","p73","null","stimuli/street_66.jpg","null","street","A","non-repeat","null","150","stimuli/street_66.jpg","","","","",""
"","","","","","image-keyboard-response","179","2.0.0","207686","p20xng64d9m","p73","528","stimuli/street_66.jpg"," ","street","A","repeat"," ","150","","","","","",""
"","","","","","image-keyboard-response","180","2.0.0","208690","p20xng64d9m","p73","null","stimuli/gym_67.jpg","null","gym","B","non-repeat","null","151","stimuli/gym_67.jpg","","","","",""
"","","","","","image-keyboard-response","181","2.0.0","209693","p20xng64d9m","p73","null","stimuli/kitchen_6.jpg","null","kitchen","C","non-repeat","null","152","stimuli/kitchen_6.jpg","","","","",""
"","","","","","image-keyboard-response","182","2.0.0","210697","p20xng64d9m","p73","null","stimuli/playground_11.jpg","null","playground","G","non-repeat","null","153","stimuli/playground_11.jpg","","","","",""
"","","","","","image-keyboard-response","183","2.0.0","211701","p20xng64d9m","p73","null","stimuli/bar_29.jpg","null","bar","H","non-repeat","null","154","stimuli/bar_29.jpg","","","","",""
"","","","","","image-keyboard-response","184","2.0.0","212705","p20xng64d9m","p73","null","stimuli/stream_50.jpg","null","stream","I","non-repeat","null","155","stimuli/stream_50.jpg","","","","",""
"","","","","","image-keyboard-response","185","2.0.0","213709","p20xng64d9m","p73","null","stimuli/street_66.jpg","null","street","A","non-repeat","null","156","stimuli/street_66.jpg","","","","",""
"","","","","","image-keyboard-response","186","2.0.0","214713","p20xng64d9m","p73","520","stimuli/street_66.jpg"," ","street","A","repeat"," ","156","","","","","",""
"","","","","","image-keyboard-response","187","2.0.0","215717","p20xng64d9m","p73","null","stimuli/gym_67.jpg","null","gym","B","non-repeat","null","157","stimuli/gym_67.jpg","","","","",""
"","","","","","image-keyboard-response","188","2.0.0","216721","p20xng64d9m","p73","null","stimuli/kitchen_6.jpg","null","kitchen","C","non-repeat","null","158","stimuli/kitchen_6.jpg","","","","",""
"","","","","","image-keyboard-response","189","2.0.0","217725","p20xng64d9m","p73","null","stimuli/desert_4.jpg","null","desert","J","non-repeat","null","159","stimuli/desert_4.jpg","","","","",""
"","","","","","image-keyboard-response","190","2.0.0","218729","p20xng64d9m","p73","null","stimuli/woods_26.jpg","null","woods","K","non-repeat","null","160","stimuli/woods_26.jpg","","","","",""
"","","","","","image-keyboard-response","191","2.0.0","219734","p20xng64d9m","p73","null","stimuli/bridge_48.jpg","null","bridge","L","non-repeat","null","161","stimuli/bridge_48.jpg","","","","",""
"","","","","","image-keyboard-response","192","2.0.0","220738","p20xng64d9m","p73","null","stimuli/playground_11.jpg","null","playground","G","non-repeat","null","162","stimuli/playground_11.jpg","","","","",""
"","","","","","image-keyboard-response","193","2.0.0","221742","p20xng64d9m","p73","null","stimuli/bar_29.jpg","null","bar","H","non-repeat","null","163","stimuli/bar_29.jpg","","","","",""
"","","","","","image-keyboard-response","194","2.0.0","222746","p20xng64d9m","p73","null","stimuli/stream_50.jpg","null","stream","I","non-repeat","null","164","stimuli/stream_50.jpg","","","","",""
"","","","","","image-keyboard-response","195","2.0.0","223750","p20xng64d9m","p73","539","stimuli/stream_50.jpg"," ","stream","I","repeat"," ","164","","","","","",""
"","","","","","image-keyboard-response","196","2.0.0","224754","p20xng64d9m","p73","null","stimuli/desert_4.jpg","null","desert","J","non-repeat","null","165","stimuli/desert_4.jpg","","","","",""
"","","","","","image-keyboard-response","197","2.0.0","225758","p20xng64d9m","p73","null","stimuli/woods_26.jpg","null","woods","K","non-repeat","null","166","stimuli/woods_26.jpg","","","","",""
"","","","","","image-keyboard-response","198","2.0.0","226761","p20xng64d9m","p73","null","stimuli/bridge_48.jpg","null","bridge","L","non-repeat","null","167","stimuli/bridge_48.jpg","","","","",""
"","","","","","image-keyboard-response","199","2.0.0","227766","p20xng64d9m","p73","540","stimuli/bridge_48.jpg"," ","bridge","L","repeat"," ","167","","","","","",""
"","","","","","image-keyboard-response","200","2.0.0","228770","p20xng64d9m","p73","null","stimuli/playground_11.jpg","null","playground","G","non-repeat","null","168","stimuli/playground_11.jpg","","","","",""
"","","","","","image-keyboard-response","201","2.0.0","229773","p20xng64d9m","p73","null","stimuli/bar_29.jpg","null","bar","H","non-repeat","null","169","stimuli/bar_29.jpg","","","","",""
"","","","","","image-keyboard-response","202","2.0.0","230779","p20xng64d9m","p73","null","stimuli/stream_50.jpg","null","stream","I","non-repeat","null","170","stimuli/stream_50.jpg","","","","",""
"","","","","","image-keyboard-response","203","2.0.0","231784","p20xng64d9m","p73","null","stimuli/bathroom_36.jpg","null","bathroom","D","non-repeat","null","171","stimuli/bathroom_36.jpg","","","","",""
"","","","","","image-keyboard-response","204","2.0.0","232788","p20xng64d9m","p73","null","stimuli/field_49.jpg","null","field","E","non-repeat","null","172","stimuli/field_49.jpg","","","","",""
"","","","","","image-keyboard-response","205","2.0.0","233792","p20xng64d9m","p73","null","stimuli/coast_42.jpg","null","coast","F","non-repeat","null","173","stimuli/coast_42.jpg","","","","",""
"","","","","","image-keyboard-response","206","2.0.0","234795","p20xng64d9m","p73","null","stimuli/desert_4.jpg","null","desert","J","non-repeat","null","174","stimuli/desert_4.jpg","","","","",""
"","","","","","image-keyboard-response","207","2.0.0","235800","p20xng64d9m","p73","null","stimuli/woods_26.jpg","null","woods","K","non-repeat","null","175","stimuli/woods_26.jpg","","","","",""
"","","","","","image-keyboard-response","208","2.0.0","236803","p20xng64d9m","p73","null","stimuli/bridge_48.jpg","null","bridge","L","non-repeat","null","176","stimuli/bridge_48.jpg","","","","",""
"","","","","","image-keyboard-response","209","2.0.0","237807","p20xng64d9m","p73","null","stimuli/bathroom_36.jpg","null","bathroom","D","non-repeat","null","177","stimuli/bathroom_36.jpg","","","","",""
"","","","","","image-keyboard-response","210","2.0.0","238811","p20xng64d9m","p73","null","stimuli/field_49.jpg","null","field","E","non-repeat","null","178","stimuli/field_49.jpg","","","","",""
"","","","","","image-keyboard-response","211","2.0.0","239813","p20xng64d9m","p73","null","stimuli/coast_42.jpg","null","coast","F","non-repeat","null","179","stimuli/coast_42.jpg","","","","",""
"","","","","","image-keyboard-response","212","2.0.0","240817","p20xng64d9m","p73","null","stimuli/street_66.jpg","null","street","A","non-repeat","null","180","stimuli/street_66.jpg","","","","",""
"","","","","","image-keyboard-response","213","2.0.0","241821","p20xng64d9m","p73","null","stimuli/gym_67.jpg","null","gym","B","non-repeat","null","181","stimuli/gym_67.jpg","","","","",""
"","","","","","image-keyboard-response","214","2.0.0","242826","p20xng64d9m","p73","null","stimuli/kitchen_6.jpg","null","kitchen","C","non-repeat","null","182","stimuli/kitchen_6.jpg","","","","",""
"","","","","","image-keyboard-response","215","2.0.0","243830","p20xng64d9m","p73","null","stimuli/desert_4.jpg","null","desert","J","non-repeat","null","183","stimuli/desert_4.jpg","","","","",""
"","","","","","image-keyboard-response","216","2.0.0","244834","p20xng64d9m","p73","null","stimuli/woods_26.jpg","null","woods","K","non-repeat","null","184","stimuli/woods_26.jpg","","","","",""
"","","","","","image-keyboard-response","217","2.0.0","245837","p20xng64d9m","p73","null","stimuli/bridge_48.jpg","null","bridge","L","non-repeat","null","185","stimuli/bridge_48.jpg","","","","",""
"","","","","","image-keyboard-response","218","2.0.0","246841","p20xng64d9m","p73","null","stimuli/bathroom_36.jpg","null","bathroom","D","non-repeat","null","186","stimuli/bathroom_36.jpg","","","","",""
"","","","","","image-keyboard-response","219","2.0.0","247845","p20xng64d9m","p73","null","stimuli/field_49.jpg","null","field","E","non-repeat","null","187","stimuli/field_49.jpg","","","","",""
"","","","","","image-keyboard-response","220","2.0.0","248849","p20xng64d9m","p73","null","stimuli/coast_42.jpg","null","coast","F","non-repeat","null","188","stimuli/coast_42.jpg","","","","",""
"","","","","","image-keyboard-response","221","2.0.0","249853","p20xng64d9m","p73","null","stimuli/street_66.jpg","null","street","A","non-repeat","null","189","stimuli/street_66.jpg","","","","",""
"","","","","","image-keyboard-response","222","2.0.0","250857","p20xng64d9m","p73","533","stimuli/street_66.jpg"," ","street","A","repeat"," ","189","","","","","",""
"","","","","","image-keyboard-response","223","2.0.0","251861","p20xng64d9m","p73","null","stimuli/gym_67.jpg","null","gym","B","non-repeat","null","190","stimuli/gym_67.jpg","","","","",""
"","","","","","image-keyboard-response","224","2.0.0","252865","p20xng64d9m","p73","null","stimuli/kitchen_6.jpg","null","kitchen","C","non-repeat","null","191","stimuli/kitchen_6.jpg","","","","",""
"","","","","","image-keyboard-response","225","2.0.0","253869","p20xng64d9m","p73","773","stimuli/kitchen_6.jpg"," ","kitchen","C","repeat"," ","191","","","","","",""
"","","","","","image-keyboard-response","226","2.0.0","254872","p20xng64d9m","p73","null","stimuli/playground_11.jpg","null","playground","G","non-repeat","null","192","stimuli/playground_11.jpg","","","","",""
"","","","","","image-keyboard-response","227","2.0.0","255877","p20xng64d9m","p73","null","stimuli/bar_29.jpg","null","bar","H","non-repeat","null","193","stimuli/bar_29.jpg","","","","",""
"","","","","","image-keyboard-response","228","2.0.0","256880","p20xng64d9m","p73","null","stimuli/stream_50.jpg","null","stream","I","non-repeat","null","194","stimuli/stream_50.jpg","","","","",""
"","","","","","image-keyboard-response","229","2.0.0","257884","p20xng64d9m","p73","null","stimuli/desert_4.jpg","null","desert","J","non-repeat","null","195","stimuli/desert_4.jpg","","","","",""
"","","","","","image-keyboard-response","230","2.0.0","258888","p20xng64d9m","p73","620","stimuli/desert_4.jpg"," ","desert","J","repeat"," ","195","","","","","",""
"","","","","","image-keyboard-response","231","2.0.0","259892","p20xng64d9m","p73","null","stimuli/woods_26.jpg","null","woods","K","non-repeat","null","196","stimuli/woods_26.jpg","","","","",""
"","","","","","image-keyboard-response","232","2.0.0","260896","p20xng64d9m","p73","null","stimuli/bridge_48.jpg","null","bridge","L","non-repeat","null","197","stimuli/bridge_48.jpg","","","","",""
"","","","","","image-keyboard-response","233","2.0.0","261900","p20xng64d9m","p73","585","stimuli/bridge_48.jpg"," ","bridge","L","repeat"," ","197","","","","","",""
"","","","","","image-keyboard-response","234","2.0.0","262905","p20xng64d9m","p73","null","stimuli/bathroom_36.jpg","null","bathroom","D","non-repeat","null","198","stimuli/bathroom_36.jpg","","","","",""
"","","","","","image-keyboard-response","235","2.0.0","263909","p20xng64d9m","p73","null","stimuli/field_49.jpg","null","field","E","non-repeat","null","199","stimuli/field_49.jpg","","","","",""
"","","","","","image-keyboard-response","236","2.0.0","264913","p20xng64d9m","p73","null","stimuli/coast_42.jpg","null","coast","F","non-repeat","null","200","stimuli/coast_42.jpg","","","","",""
"","","","","","image-keyboard-response","237","2.0.0","265918","p20xng64d9m","p73","null","stimuli/playground_11.jpg","null","playground","G","non-repeat","null","201","stimuli/playground_11.jpg","","","","",""
"","","","","","image-keyboard-response","238","2.0.0","266922","p20xng64d9m","p73","null","stimuli/bar_29.jpg","null","bar","H","non-repeat","null","202","stimuli/bar_29.jpg","","","","",""
"","","","","","image-keyboard-response","239","2.0.0","267927","p20xng64d9m","p73","null","stimuli/stream_50.jpg","null","stream","I","non-repeat","null","203","stimuli/stream_50.jpg","","","","",""
"","","","","","image-keyboard-response","240","2.0.0","268931","p20xng64d9m","p73","null","stimuli/street_66.jpg","null","street","A","non-repeat","null","204","stimuli/street_66.jpg","","","","",""
"","","","","","image-keyboard-response","241","2.0.0","269936","p20xng64d9m","p73","null","stimuli/gym_67.jpg","null","gym","B","non-repeat","null","205","stimuli/gym_67.jpg","","","","",""
"","","","","","image-keyboard-response","242","2.0.0","270940","p20xng64d9m","p73","null","stimuli/kitchen_6.jpg","null","kitchen","C","non-repeat","null","206","stimuli/kitchen_6.jpg","","","","",""
"","","","","","image-keyboard-response","243","2.0.0","271943","p20xng64d9m","p73","null","stimuli/desert_4.jpg","null","desert","J","non-repeat","null","207","stimuli/desert_4.jpg","","","","",""
"","","","","","image-keyboard-response","244","2.0.0","272946","p20xng64d9m","p73","null","stimuli/woods_26.jpg","null","woods","K","non-repeat","null","208","stimuli/woods_26.jpg","","","","",""
"","","","","","image-keyboard-response","245","2.0.0","273949","p20xng64d9m","p73","null","stimuli/bridge_48.jpg","null","bridge","L","non-repeat","null","209","stimuli/bridge_48.jpg","","","","",""
"","","","","","image-keyboard-response","246","2.0.0","274953","p20xng64d9m","p73","null","stimuli/street_66.jpg","null","street","A","non-repeat","null","210","stimuli/street_66.jpg","","","","",""
"","","","","","image-keyboard-response","247","2.0.0","275957","p20xng64d9m","p73","null","stimuli/gym_67.jpg","null","gym","B","non-repeat","null","211","stimuli/gym_67.jpg","","","","",""
"","","","","","image-keyboard-response","248","2.0.0","276961","p20xng64d9m","p73","null","stimuli/kitchen_6.jpg","null","kitchen","C","non-repeat","null","212","stimuli/kitchen_6.jpg","","","","",""
"","","","","","image-keyboard-response","249","2.0.0","277971","p20xng64d9m","p73","460","stimuli/kitchen_6.jpg"," ","kitchen","C","repeat"," ","212","","","","","",""
"","","","","","image-keyboard-response","250","2.0.0","278975","p20xng64d9m","p73","null","stimuli/playground_11.jpg","null","playground","G","non-repeat","null","213","stimuli/playground_11.jpg","","","","",""
"","","","","","image-keyboard-response","251","2.0.0","279978","p20xng64d9m","p73","null","stimuli/bar_29.jpg","null","bar","H","non-repeat","null","214","stimuli/bar_29.jpg","","","","",""
"","","","","","image-keyboard-response","252","2.0.0","280982","p20xng64d9m","p73","null","stimuli/stream_50.jpg","null","stream","I","non-repeat","null","215","stimuli/stream_50.jpg","","","","",""
"","","","","","image-keyboard-response","253","2.0.0","281986","p20xng64d9m","p73","null","stimuli/stream_50.jpg","null","stream","I","repeat"," ","215","","","","","",""
"","","","","","image-keyboard-response","254","2.0.0","282990","p20xng64d9m","p73","null","stimuli/desert_4.jpg","null","desert","J","non-repeat","null","216","stimuli/desert_4.jpg","","","","",""
"","","","","","image-keyboard-response","255","2.0.0","283994","p20xng64d9m","p73","null","stimuli/woods_26.jpg","null","woods","K","non-repeat","null","217","stimuli/woods_26.jpg","","","","",""
"","","","","","image-keyboard-response","256","2.0.0","284998","p20xng64d9m","p73","null","stimuli/bridge_48.jpg","null","bridge","L","non-repeat","null","218","stimuli/bridge_48.jpg","","","","",""
"","","","","","image-keyboard-response","257","2.0.0","286002","p20xng64d9m","p73","null","stimuli/bathroom_36.jpg","null","bathroom","D","non-repeat","null","219","stimuli/bathroom_36.jpg","","","","",""
"","","","","","image-keyboard-response","258","2.0.0","287005","p20xng64d9m","p73","null","stimuli/field_49.jpg","null","field","E","non-repeat","null","220","stimuli/field_49.jpg","","","","",""
"","","","","","image-keyboard-response","259","2.0.0","288009","p20xng64d9m","p73","null","stimuli/coast_42.jpg","null","coast","F","non-repeat","null","221","stimuli/coast_42.jpg","","","","",""
"","","","","","image-keyboard-response","260","2.0.0","289013","p20xng64d9m","p73","617","stimuli/coast_42.jpg"," ","coast","F","repeat"," ","221","","","","","",""
"","","","","","image-keyboard-response","261","2.0.0","290017","p20xng64d9m","p73","null","stimuli/playground_11.jpg","null","playground","G","non-repeat","null","222","stimuli/playground_11.jpg","","","","",""
"","","","","","image-keyboard-response","262","2.0.0","291020","p20xng64d9m","p73","null","stimuli/bar_29.jpg","null","bar","H","non-repeat","null","223","stimuli/bar_29.jpg","","","","",""
"","","","","","image-keyboard-response","263","2.0.0","292024","p20xng64d9m","p73","null","stimuli/stream_50.jpg","null","stream","I","non-repeat","null","224","stimuli/stream_50.jpg","","","","",""
"","","","","","image-keyboard-response","264","2.0.0","293028","p20xng64d9m","p73","731","stimuli/stream_50.jpg"," ","stream","I","repeat"," ","224","","","","","",""
"","","","","","image-keyboard-response","265","2.0.0","294033","p20xng64d9m","p73","null","stimuli/street_66.jpg","null","street","A","non-repeat","null","225","stimuli/street_66.jpg","","","","",""
"","","","","","image-keyboard-response","266","2.0.0","295036","p20xng64d9m","p73","null","stimuli/gym_67.jpg","null","gym","B","non-repeat","null","226","stimuli/gym_67.jpg","","","","",""
"","","","","","image-keyboard-response","267","2.0.0","296040","p20xng64d9m","p73","null","stimuli/kitchen_6.jpg","null","kitchen","C","non-repeat","null","227","stimuli/kitchen_6.jpg","","","","",""
"","","","","","image-keyboard-response","268","2.0.0","297044","p20xng64d9m","p73","572","stimuli/kitchen_6.jpg"," ","kitchen","C","repeat"," ","227","","","","","",""
"","","","","","image-keyboard-response","269","2.0.0","298048","p20xng64d9m","p73","null","stimuli/bathroom_36.jpg","null","bathroom","D","non-repeat","null","228","stimuli/bathroom_36.jpg","","","","",""
"","","","","","image-keyboard-response","270","2.0.0","299051","p20xng64d9m","p73","null","stimuli/field_49.jpg","null","field","E","non-repeat","null","229","stimuli/field_49.jpg","","","","",""
"","","","","","image-keyboard-response","271","2.0.0","300054","p20xng64d9m","p73","null","stimuli/coast_42.jpg","null","coast","F","non-repeat","null","230","stimuli/coast_42.jpg","","","","",""
"","","","","","image-keyboard-response","272","2.0.0","301059","p20xng64d9m","p73","609","stimuli/coast_42.jpg"," ","coast","F","repeat"," ","230","","","","","",""
"","","","","","image-keyboard-response","273","2.0.0","302063","p20xng64d9m","p73","null","stimuli/street_66.jpg","null","street","A","non-repeat","null","231","stimuli/street_66.jpg","","","","",""
"","","","","","image-keyboard-response","274","2.0.0","303067","p20xng64d9m","p73","null","stimuli/gym_67.jpg","null","gym","B","non-repeat","null","232","stimuli/gym_67.jpg","","","","",""
"","","","","","image-keyboard-response","275","2.0.0","304071","p20xng64d9m","p73","null","stimuli/kitchen_6.jpg","null","kitchen","C","non-repeat","null","233","stimuli/kitchen_6.jpg","","","","",""
"","","","","","image-keyboard-response","276","2.0.0","305075","p20xng64d9m","p73","null","stimuli/bathroom_36.jpg","null","bathroom","D","non-repeat","null","234","stimuli/bathroom_36.jpg","","","","",""
"","","","","","image-keyboard-response","277","2.0.0","306079","p20xng64d9m","p73","null","stimuli/field_49.jpg","null","field","E","non-repeat","null","235","stimuli/field_49.jpg","","","","",""
"","","","","","image-keyboard-response","278","2.0.0","307084","p20xng64d9m","p73","null","stimuli/coast_42.jpg","null","coast","F","non-repeat","null","236","stimuli/coast_42.jpg","","","","",""
"","","","","","image-keyboard-response","279","2.0.0","308088","p20xng64d9m","p73","null","stimuli/street_66.jpg","null","street","A","non-repeat","null","237","stimuli/street_66.jpg","","","","",""
"","","","","","image-keyboard-response","280","2.0.0","309093","p20xng64d9m","p73","null","stimuli/gym_67.jpg","null","gym","B","non-repeat","null","238","stimuli/gym_67.jpg","","","","",""
"","","","","","image-keyboard-response","281","2.0.0","310096","p20xng64d9m","p73","null","stimuli/kitchen_6.jpg","null","kitchen","C","non-repeat","null","239","stimuli/kitchen_6.jpg","","","","",""
"","","","","","image-keyboard-response","282","2.0.0","311100","p20xng64d9m","p73","517","stimuli/kitchen_6.jpg"," ","kitchen","C","repeat"," ","239","","","","","",""
"","","","","","image-keyboard-response","283","2.0.0","312105","p20xng64d9m","p73","null","stimuli/desert_4.jpg","null","desert","J","non-repeat","null","240","stimuli/desert_4.jpg","","","","",""
"","","","","","image-keyboard-response","284","2.0.0","313109","p20xng64d9m","p73","null","stimuli/woods_26.jpg","null","woods","K","non-repeat","null","241","stimuli/woods_26.jpg","","","","",""
"","","","","","image-keyboard-response","285","2.0.0","314113","p20xng64d9m","p73","null","stimuli/bridge_48.jpg","null","bridge","L","non-repeat","null","242","stimuli/bridge_48.jpg","","","","",""
"","","","","","image-keyboard-response","286","2.0.0","315117","p20xng64d9m","p73","null","stimuli/bathroom_36.jpg","null","bathroom","D","non-repeat","null","243","stimuli/bathroom_36.jpg","","","","",""
"","","","","","image-keyboard-response","287","2.0.0","316120","p20xng64d9m","p73","null","stimuli/field_49.jpg","null","field","E","non-repeat","null","244","stimuli/field_49.jpg","","","","",""
"","","","","","image-keyboard-response","288","2.0.0","317125","p20xng64d9m","p73","null","stimuli/coast_42.jpg","null","coast","F","non-repeat","null","245","stimuli/coast_42.jpg","","","","",""
"","","","","","image-keyboard-response","289","2.0.0","318129","p20xng64d9m","p73","null","stimuli/playground_11.jpg","null","playground","G","non-repeat","null","246","stimuli/playground_11.jpg","","","","",""
"","","","","","image-keyboard-response","290","2.0.0","319132","p20xng64d9m","p73","null","stimuli/bar_29.jpg","null","bar","H","non-repeat","null","247","stimuli/bar_29.jpg","","","","",""
"","","","","","image-keyboard-response","291","2.0.0","320136","p20xng64d9m","p73","null","stimuli/stream_50.jpg","null","stream","I","non-repeat","null","248","stimuli/stream_50.jpg","","","","",""
"","","","","","image-keyboard-response","292","2.0.0","321141","p20xng64d9m","p73","null","stimuli/street_66.jpg","null","street","A","non-repeat","null","249","stimuli/street_66.jpg","","","","",""
"","","","","","image-keyboard-response","293","2.0.0","322145","p20xng64d9m","p73","null","stimuli/gym_67.jpg","null","gym","B","non-repeat","null","250","stimuli/gym_67.jpg","","","","",""
"","","","","","image-keyboard-response","294","2.0.0","323149","p20xng64d9m","p73","null","stimuli/kitchen_6.jpg","null","kitchen","C","non-repeat","null","251","stimuli/kitchen_6.jpg","","","","",""
"","","","","","image-keyboard-response","295","2.0.0","324152","p20xng64d9m","p73","null","stimuli/playground_11.jpg","null","playground","G","non-repeat","null","252","stimuli/playground_11.jpg","","","","",""
"","","","","","image-keyboard-response","296","2.0.0","325157","p20xng64d9m","p73","null","stimuli/bar_29.jpg","null","bar","H","non-repeat","null","253","stimuli/bar_29.jpg","","","","",""
"","","","","","image-keyboard-response","297","2.0.0","326161","p20xng64d9m","p73","null","stimuli/stream_50.jpg","null","stream","I","non-repeat","null","254","stimuli/stream_50.jpg","","","","",""
"","","","","","image-keyboard-response","298","2.0.0","327165","p20xng64d9m","p73","null","stimuli/desert_4.jpg","null","desert","J","non-repeat","null","255","stimuli/desert_4.jpg","","","","",""
"","","","","","image-keyboard-response","299","2.0.0","328169","p20xng64d9m","p73","null","stimuli/woods_26.jpg","null","woods","K","non-repeat","null","256","stimuli/woods_26.jpg","","","","",""
"","","","","","image-keyboard-response","300","2.0.0","329173","p20xng64d9m","p73","null","stimuli/bridge_48.jpg","null","bridge","L","non-repeat","null","257","stimuli/bridge_48.jpg","","","","",""
"","","","","","image-keyboard-response","301","2.0.0","330176","p20xng64d9m","p73","null","stimuli/bathroom_36.jpg","null","bathroom","D","non-repeat","null","258","stimuli/bathroom_36.jpg","","","","",""
"","","","","","image-keyboard-response","302","2.0.0","331180","p20xng64d9m","p73","null","stimuli/field_49.jpg","null","field","E","non-repeat","null","259","stimuli/field_49.jpg","","","","",""
"","","","","","image-keyboard-response","303","2.0.0","332184","p20xng64d9m","p73","null","stimuli/coast_42.jpg","null","coast","F","non-repeat","null","260","stimuli/coast_42.jpg","","","","",""
"","","","","","image-keyboard-response","304","2.0.0","333189","p20xng64d9m","p73","null","stimuli/desert_4.jpg","null","desert","J","non-repeat","null","261","stimuli/desert_4.jpg","","","","",""
"","","","","","image-keyboard-response","305","2.0.0","334193","p20xng64d9m","p73","null","stimuli/woods_26.jpg","null","woods","K","non-repeat","null","262","stimuli/woods_26.jpg","","","","",""
"","","","","","image-keyboard-response","306","2.0.0","335197","p20xng64d9m","p73","null","stimuli/bridge_48.jpg","null","bridge","L","non-repeat","null","263","stimuli/bridge_48.jpg","","","","",""
"","","","","","image-keyboard-response","307","2.0.0","336200","p20xng64d9m","p73","null","stimuli/bathroom_36.jpg","null","bathroom","D","non-repeat","null","264","stimuli/bathroom_36.jpg","","","","",""
"","","","","","image-keyboard-response","308","2.0.0","337204","p20xng64d9m","p73","null","stimuli/field_49.jpg","null","field","E","non-repeat","null","265","stimuli/field_49.jpg","","","","",""
"","","","","","image-keyboard-response","309","2.0.0","338208","p20xng64d9m","p73","null","stimuli/coast_42.jpg","null","coast","F","non-repeat","null","266","stimuli/coast_42.jpg","","","","",""
"","","","","","image-keyboard-response","310","2.0.0","339212","p20xng64d9m","p73","null","stimuli/playground_11.jpg","null","playground","G","non-repeat","null","267","stimuli/playground_11.jpg","","","","",""
"","","","","","image-keyboard-response","311","2.0.0","340216","p20xng64d9m","p73","null","stimuli/bar_29.jpg","null","bar","H","non-repeat","null","268","stimuli/bar_29.jpg","","","","",""
"","","","","","image-keyboard-response","312","2.0.0","341221","p20xng64d9m","p73","null","stimuli/stream_50.jpg","null","stream","I","non-repeat","null","269","stimuli/stream_50.jpg","","","","",""
"","","","","","image-keyboard-response","313","2.0.0","342225","p20xng64d9m","p73","null","stimuli/street_66.jpg","null","street","A","non-repeat","null","270","stimuli/street_66.jpg","","","","",""
"","","","","","image-keyboard-response","314","2.0.0","343229","p20xng64d9m","p73","null","stimuli/gym_67.jpg","null","gym","B","non-repeat","null","271","stimuli/gym_67.jpg","","","","",""
"","","","","","image-keyboard-response","315","2.0.0","344233","p20xng64d9m","p73","null","stimuli/kitchen_6.jpg","null","kitchen","C","non-repeat","null","272","stimuli/kitchen_6.jpg","","","","",""
"","","","","","image-keyboard-response","316","2.0.0","345237","p20xng64d9m","p73","null","stimuli/playground_11.jpg","null","playground","G","non-repeat","null","273","stimuli/playground_11.jpg","","","","",""
"","","","","","image-keyboard-response","317","2.0.0","346241","p20xng64d9m","p73","834","stimuli/playground_11.jpg"," ","playground","G","repeat"," ","273","","","","","",""
"","","","","","image-keyboard-response","318","2.0.0","347246","p20xng64d9m","p73","null","stimuli/bar_29.jpg","null","bar","H","non-repeat","null","274","stimuli/bar_29.jpg","","","","",""
"","","","","","image-keyboard-response","319","2.0.0","348250","p20xng64d9m","p73","null","stimuli/stream_50.jpg","null","stream","I","non-repeat","null","275","stimuli/stream_50.jpg","","","","",""
"","","","","","image-keyboard-response","320","2.0.0","349254","p20xng64d9m","p73","null","stimuli/desert_4.jpg","null","desert","J","non-repeat","null","276","stimuli/desert_4.jpg","","","","",""
"","","","","","image-keyboard-response","321","2.0.0","350259","p20xng64d9m","p73","null","stimuli/woods_26.jpg","null","woods","K","non-repeat","null","277","stimuli/woods_26.jpg","","","","",""
"","","","","","image-keyboard-response","322","2.0.0","351262","p20xng64d9m","p73","null","stimuli/bridge_48.jpg","null","bridge","L","non-repeat","null","278","stimuli/bridge_48.jpg","","","","",""
"","","","","","image-keyboard-response","323","2.0.0","352265","p20xng64d9m","p73","null","stimuli/street_66.jpg","null","street","A","non-repeat","null","279","stimuli/street_66.jpg","","","","",""
"","","","","","image-keyboard-response","324","2.0.0","353269","p20xng64d9m","p73","null","stimuli/gym_67.jpg","null","gym","B","non-repeat","null","280","stimuli/gym_67.jpg","","","","",""
"","","","","","image-keyboard-response","325","2.0.0","354274","p20xng64d9m","p73","null","stimuli/kitchen_6.jpg","null","kitchen","C","non-repeat","null","281","stimuli/kitchen_6.jpg","","","","",""
"","","","","","image-keyboard-response","326","2.0.0","355278","p20xng64d9m","p73","667","stimuli/kitchen_6.jpg"," ","kitchen","C","repeat"," ","281","","","","","",""
"","","","","","image-keyboard-response","327","2.0.0","356282","p20xng64d9m","p73","null","stimuli/desert_4.jpg","null","desert","J","non-repeat","null","282","stimuli/desert_4.jpg","","","","",""
"","","","","","image-keyboard-response","328","2.0.0","357285","p20xng64d9m","p73","null","stimuli/woods_26.jpg","null","woods","K","non-repeat","null","283","stimuli/woods_26.jpg","","","","",""
"","","","","","image-keyboard-response","329","2.0.0","358288","p20xng64d9m","p73","null","stimuli/bridge_48.jpg","null","bridge","L","non-repeat","null","284","stimuli/bridge_48.jpg","","","","",""
"","","","","","image-keyboard-response","330","2.0.0","359291","p20xng64d9m","p73","null","stimuli/bathroom_36.jpg","null","bathroom","D","non-repeat","null","285","stimuli/bathroom_36.jpg","","","","",""
"","","","","","image-keyboard-response","331","2.0.0","360294","p20xng64d9m","p73","null","stimuli/field_49.jpg","null","field","E","non-repeat","null","286","stimuli/field_49.jpg","","","","",""
"","","","","","image-keyboard-response","332","2.0.0","361298","p20xng64d9m","p73","null","stimuli/coast_42.jpg","null","coast","F","non-repeat","null","287","stimuli/coast_42.jpg","","","","",""
"","","","","","image-keyboard-response","333","2.0.0","362301","p20xng64d9m","p73","null","stimuli/desert_4.jpg","null","desert","J","non-repeat","null","288","stimuli/desert_4.jpg","","","","",""
"","","","","","image-keyboard-response","334","2.0.0","363306","p20xng64d9m","p73","null","stimuli/woods_26.jpg","null","woods","K","non-repeat","null","289","stimuli/woods_26.jpg","","","","",""
"","","","","","image-keyboard-response","335","2.0.0","364316","p20xng64d9m","p73","null","stimuli/bridge_48.jpg","null","bridge","L","non-repeat","null","290","stimuli/bridge_48.jpg","","","","",""
"","","","","","image-keyboard-response","336","2.0.0","365320","p20xng64d9m","p73","null","stimuli/playground_11.jpg","null","playground","G","non-repeat","null","291","stimuli/playground_11.jpg","","","","",""
"","","","","","image-keyboard-response","337","2.0.0","366324","p20xng64d9m","p73","null","stimuli/bar_29.jpg","null","bar","H","non-repeat","null","292","stimuli/bar_29.jpg","","","","",""
"","","","","","image-keyboard-response","338","2.0.0","367328","p20xng64d9m","p73","null","stimuli/stream_50.jpg","null","stream","I","non-repeat","null","293","stimuli/stream_50.jpg","","","","",""
"","","","","","image-keyboard-response","339","2.0.0","368333","p20xng64d9m","p73","null","stimuli/stream_50.jpg","null","stream","I","repeat"," ","293","","","","","",""
"","","","","","image-keyboard-response","340","2.0.0","369337","p20xng64d9m","p73","null","stimuli/desert_4.jpg","null","desert","J","non-repeat","null","294","stimuli/desert_4.jpg","","","","",""
"","","","","","image-keyboard-response","341","2.0.0","370341","p20xng64d9m","p73","null","stimuli/woods_26.jpg","null","woods","K","non-repeat","null","295","stimuli/woods_26.jpg","","","","",""
"","","","","","image-keyboard-response","342","2.0.0","371345","p20xng64d9m","p73","null","stimuli/bridge_48.jpg","null","bridge","L","non-repeat","null","296","stimuli/bridge_48.jpg","","","","",""
"","","","","","image-keyboard-response","343","2.0.0","372350","p20xng64d9m","p73","null","stimuli/street_66.jpg","null","street","A","non-repeat","null","297","stimuli/street_66.jpg","","","","",""
"","","","","","image-keyboard-response","344","2.0.0","373354","p20xng64d9m","p73","null","stimuli/gym_67.jpg","null","gym","B","non-repeat","null","298","stimuli/gym_67.jpg","","","","",""
"","","","","","image-keyboard-response","345","2.0.0","374357","p20xng64d9m","p73","null","stimuli/kitchen_6.jpg","null","kitchen","C","non-repeat","null","299","stimuli/kitchen_6.jpg","","","","",""
"","","","","","image-keyboard-response","346","2.0.0","375361","p20xng64d9m","p73","null","stimuli/bathroom_36.jpg","null","bathroom","D","non-repeat","null","300","stimuli/bathroom_36.jpg","","","","",""
"","","","","","image-keyboard-response","347","2.0.0","376365","p20xng64d9m","p73","null","stimuli/field_49.jpg","null","field","E","non-repeat","null","301","stimuli/field_49.jpg","","","","",""
"","","","","","image-keyboard-response","348","2.0.0","377370","p20xng64d9m","p73","null","stimuli/coast_42.jpg","null","coast","F","non-repeat","null","302","stimuli/coast_42.jpg","","","","",""
"","","","","","image-keyboard-response","349","2.0.0","378374","p20xng64d9m","p73","null","stimuli/street_66.jpg","null","street","A","non-repeat","null","303","stimuli/street_66.jpg","","","","",""
"","","","","","image-keyboard-response","350","2.0.0","379377","p20xng64d9m","p73","null","stimuli/gym_67.jpg","null","gym","B","non-repeat","null","304","stimuli/gym_67.jpg","","","","",""
"","","","","","image-keyboard-response","351","2.0.0","380381","p20xng64d9m","p73","null","stimuli/kitchen_6.jpg","null","kitchen","C","non-repeat","null","305","stimuli/kitchen_6.jpg","","","","",""
"","","","","","image-keyboard-response","352","2.0.0","381385","p20xng64d9m","p73","null","stimuli/playground_11.jpg","null","playground","G","non-repeat","null","306","stimuli/playground_11.jpg","","","","",""
"","","","","","image-keyboard-response","353","2.0.0","382389","p20xng64d9m","p73","null","stimuli/bar_29.jpg","null","bar","H","non-repeat","null","307","stimuli/bar_29.jpg","","","","",""
"","","","","","image-keyboard-response","354","2.0.0","383393","p20xng64d9m","p73","null","stimuli/stream_50.jpg","null","stream","I","non-repeat","null","308","stimuli/stream_50.jpg","","","","",""
"","","","","","image-keyboard-response","355","2.0.0","384396","p20xng64d9m","p73","null","stimuli/bathroom_36.jpg","null","bathroom","D","non-repeat","null","309","stimuli/bathroom_36.jpg","","","","",""
"","","","","","image-keyboard-response","356","2.0.0","385400","p20xng64d9m","p73","null","stimuli/field_49.jpg","null","field","E","non-repeat","null","310","stimuli/field_49.jpg","","","","",""
"","","","","","image-keyboard-response","357","2.0.0","386404","p20xng64d9m","p73","null","stimuli/coast_42.jpg","null","coast","F","non-repeat","null","311","stimuli/coast_42.jpg","","","","",""
"","","","","","image-keyboard-response","358","2.0.0","387406","p20xng64d9m","p73","null","stimuli/desert_4.jpg","null","desert","J","non-repeat","null","312","stimuli/desert_4.jpg","","","","",""
"","","","","","image-keyboard-response","359","2.0.0","388410","p20xng64d9m","p73","745","stimuli/desert_4.jpg"," ","desert","J","repeat"," ","312","","","","","",""
"","","","","","image-keyboard-response","360","2.0.0","389413","p20xng64d9m","p73","null","stimuli/woods_26.jpg","null","woods","K","non-repeat","null","313","stimuli/woods_26.jpg","","","","",""
"","","","","","image-keyboard-response","361","2.0.0","390417","p20xng64d9m","p73","null","stimuli/bridge_48.jpg","null","bridge","L","non-repeat","null","314","stimuli/bridge_48.jpg","","","","",""
"","","","","","image-keyboard-response","362","2.0.0","391421","p20xng64d9m","p73","null","stimuli/playground_11.jpg","null","playground","G","non-repeat","null","315","stimuli/playground_11.jpg","","","","",""
"","","","","","image-keyboard-response","363","2.0.0","392425","p20xng64d9m","p73","null","stimuli/bar_29.jpg","null","bar","H","non-repeat","null","316","stimuli/bar_29.jpg","","","","",""
"","","","","","image-keyboard-response","364","2.0.0","393430","p20xng64d9m","p73","null","stimuli/stream_50.jpg","null","stream","I","non-repeat","null","317","stimuli/stream_50.jpg","","","","",""
"","","","","","image-keyboard-response","365","2.0.0","394434","p20xng64d9m","p73","980","stimuli/stream_50.jpg"," ","stream","I","repeat"," ","317","","","","","",""
"","","","","","image-keyboard-response","366","2.0.0","395438","p20xng64d9m","p73","null","stimuli/street_66.jpg","null","street","A","non-repeat","null","318","stimuli/street_66.jpg","","","","",""
"","","","","","image-keyboard-response","367","2.0.0","396442","p20xng64d9m","p73","null","stimuli/gym_67.jpg","null","gym","B","non-repeat","null","319","stimuli/gym_67.jpg","","","","",""
"","","","","","image-keyboard-response","368","2.0.0","397446","p20xng64d9m","p73","null","stimuli/kitchen_6.jpg","null","kitchen","C","non-repeat","null","320","stimuli/kitchen_6.jpg","","","","",""
"","","","","","image-keyboard-response","369","2.0.0","398450","p20xng64d9m","p73","null","stimuli/playground_11.jpg","null","playground","G","non-repeat","null","321","stimuli/playground_11.jpg","","","","",""
"","","","","","image-keyboard-response","370","2.0.0","399454","p20xng64d9m","p73","null","stimuli/bar_29.jpg","null","bar","H","non-repeat","null","322","stimuli/bar_29.jpg","","","","",""
"","","","","","image-keyboard-response","371","2.0.0","400458","p20xng64d9m","p73","null","stimuli/stream_50.jpg","null","stream","I","non-repeat","null","323","stimuli/stream_50.jpg","","","","",""
"","","","","","image-keyboard-response","372","2.0.0","401462","p20xng64d9m","p73","null","stimuli/bathroom_36.jpg","null","bathroom","D","non-repeat","null","324","stimuli/bathroom_36.jpg","","","","",""
"","","","","","image-keyboard-response","373","2.0.0","402465","p20xng64d9m","p73","null","stimuli/bathroom_36.jpg","null","bathroom","D","repeat"," ","324","","","","","",""
"","","","","","image-keyboard-response","374","2.0.0","403469","p20xng64d9m","p73","null","stimuli/field_49.jpg","null","field","E","non-repeat","null","325","stimuli/field_49.jpg","","","","",""
"","","","","","image-keyboard-response","375","2.0.0","404473","p20xng64d9m","p73","null","stimuli/coast_42.jpg","null","coast","F","non-repeat","null","326","stimuli/coast_42.jpg","","","","",""
"","","","","","image-keyboard-response","376","2.0.0","405477","p20xng64d9m","p73","null","stimuli/street_66.jpg","null","street","A","non-repeat","null","327","stimuli/street_66.jpg","","","","",""
"","","","","","image-keyboard-response","377","2.0.0","406481","p20xng64d9m","p73","null","stimuli/gym_67.jpg","null","gym","B","non-repeat","null","328","stimuli/gym_67.jpg","","","","",""
"","","","","","image-keyboard-response","378","2.0.0","407485","p20xng64d9m","p73","null","stimuli/kitchen_6.jpg","null","kitchen","C","non-repeat","null","329","stimuli/kitchen_6.jpg","","","","",""
"","","","","","image-keyboard-response","379","2.0.0","408489","p20xng64d9m","p73","null","stimuli/playground_11.jpg","null","playground","G","non-repeat","null","330","stimuli/playground_11.jpg","","","","",""
"","","","","","image-keyboard-response","380","2.0.0","409494","p20xng64d9m","p73","881","stimuli/playground_11.jpg"," ","playground","G","repeat"," ","330","","","","","",""
"","","","","","image-keyboard-response","381","2.0.0","410498","p20xng64d9m","p73","null","stimuli/bar_29.jpg","null","bar","H","non-repeat","null","331","stimuli/bar_29.jpg","","","","",""
"","","","","","image-keyboard-response","382","2.0.0","411500","p20xng64d9m","p73","null","stimuli/stream_50.jpg","null","stream","I","non-repeat","null","332","stimuli/stream_50.jpg","","","","",""
"","","","","","image-keyboard-response","383","2.0.0","412505","p20xng64d9m","p73","445","stimuli/stream_50.jpg"," ","stream","I","repeat"," ","332","","","","","",""
"","","","","","image-keyboard-response","384","2.0.0","413510","p20xng64d9m","p73","null","stimuli/street_66.jpg","null","street","A","non-repeat","null","333","stimuli/street_66.jpg","","","","",""
"","","","","","image-keyboard-response","385","2.0.0","414514","p20xng64d9m","p73","null","stimuli/gym_67.jpg","null","gym","B","non-repeat","null","334","stimuli/gym_67.jpg","","","","",""
"","","","","","image-keyboard-response","386","2.0.0","415518","p20xng64d9m","p73","null","stimuli/kitchen_6.jpg","null","kitchen","C","non-repeat","null","335","stimuli/kitchen_6.jpg","","","","",""
"","","","","","image-keyboard-response","387","2.0.0","416521","p20xng64d9m","p73","null","stimuli/bathroom_36.jpg","null","bathroom","D","non-repeat","null","336","stimuli/bathroom_36.jpg","","","","",""
"","","","","","image-keyboard-response","388","2.0.0","417525","p20xng64d9m","p73","null","stimuli/field_49.jpg","null","field","E","non-repeat","null","337","stimuli/field_49.jpg","","","","",""
"","","","","","image-keyboard-response","389","2.0.0","418530","p20xng64d9m","p73","null","stimuli/coast_42.jpg","null","coast","F","non-repeat","null","338","stimuli/coast_42.jpg","","","","",""
"","","","","","image-keyboard-response","390","2.0.0","419534","p20xng64d9m","p73","null","stimuli/playground_11.jpg","null","playground","G","non-repeat","null","339","stimuli/playground_11.jpg","","","","",""
"","","","","","image-keyboard-response","391","2.0.0","420538","p20xng64d9m","p73","null","stimuli/bar_29.jpg","null","bar","H","non-repeat","null","340","stimuli/bar_29.jpg","","","","",""
"","","","","","image-keyboard-response","392","2.0.0","421542","p20xng64d9m","p73","null","stimuli/stream_50.jpg","null","stream","I","non-repeat","null","341","stimuli/stream_50.jpg","","","","",""
"","","","","","image-keyboard-response","393","2.0.0","422546","p20xng64d9m","p73","null","stimuli/bathroom_36.jpg","null","bathroom","D","non-repeat","null","342","stimuli/bathroom_36.jpg","","","","",""
"","","","","","image-keyboard-response","394","2.0.0","423550","p20xng64d9m","p73","null","stimuli/field_49.jpg","null","field","E","non-repeat","null","343","stimuli/field_49.jpg","","","","",""
"","","","","","image-keyboard-response","395","2.0.0","424554","p20xng64d9m","p73","null","stimuli/coast_42.jpg","null","coast","F","non-repeat","null","344","stimuli/coast_42.jpg","","","","",""
"","","","","","image-keyboard-response","396","2.0.0","425559","p20xng64d9m","p73","null","stimuli/playground_11.jpg","null","playground","G","non-repeat","null","345","stimuli/playground_11.jpg","","","","",""
"","","","","","image-keyboard-response","397","2.0.0","426564","p20xng64d9m","p73","null","stimuli/bar_29.jpg","null","bar","H","non-repeat","null","346","stimuli/bar_29.jpg","","","","",""
"","","","","","image-keyboard-response","398","2.0.0","427568","p20xng64d9m","p73","null","stimuli/stream_50.jpg","null","stream","I","non-repeat","null","347","stimuli/stream_50.jpg","","","","",""
"","","","","","image-keyboard-response","399","2.0.0","428572","p20xng64d9m","p73","null","stimuli/street_66.jpg","null","street","A","non-repeat","null","348","stimuli/street_66.jpg","","","","",""
"","","","","","image-keyboard-response","400","2.0.0","429577","p20xng64d9m","p73","698","stimuli/street_66.jpg"," ","street","A","repeat"," ","348","","","","","",""
"","","","","","image-keyboard-response","401","2.0.0","430580","p20xng64d9m","p73","null","stimuli/gym_67.jpg","null","gym","B","non-repeat","null","349","stimuli/gym_67.jpg","","","","",""
"","","","","","image-keyboard-response","402","2.0.0","431585","p20xng64d9m","p73","null","stimuli/kitchen_6.jpg","null","kitchen","C","non-repeat","null","350","stimuli/kitchen_6.jpg","","","","",""
"","","","","","image-keyboard-response","403","2.0.0","432590","p20xng64d9m","p73","null","stimuli/playground_11.jpg","null","playground","G","non-repeat","null","351","stimuli/playground_11.jpg","","","","",""
"","","","","","image-keyboard-response","404","2.0.0","433594","p20xng64d9m","p73","null","stimuli/bar_29.jpg","null","bar","H","non-repeat","null","352","stimuli/bar_29.jpg","","","","",""
"","","","","","image-keyboard-response","405","2.0.0","434599","p20xng64d9m","p73","null","stimuli/stream_50.jpg","null","stream","I","non-repeat","null","353","stimuli/stream_50.jpg","","","","",""
"","","","","","image-keyboard-response","406","2.0.0","435603","p20xng64d9m","p73","812","stimuli/stream_50.jpg"," ","stream","I","repeat"," ","353","","","","","",""
"","","","","","image-keyboard-response","407","2.0.0","436607","p20xng64d9m","p73","null","stimuli/street_66.jpg","null","street","A","non-repeat","null","354","stimuli/street_66.jpg","","","","",""
"","","","","","image-keyboard-response","408","2.0.0","437610","p20xng64d9m","p73","622","stimuli/street_66.jpg"," ","street","A","repeat"," ","354","","","","","",""
"","","","","","image-keyboard-response","409","2.0.0","438613","p20xng64d9m","p73","null","stimuli/gym_67.jpg","null","gym","B","non-repeat","null","355","stimuli/gym_67.jpg","","","","",""
"","","","","","image-keyboard-response","410","2.0.0","439618","p20xng64d9m","p73","null","stimuli/kitchen_6.jpg","null","kitchen","C","non-repeat","null","356","stimuli/kitchen_6.jpg","","","","",""
"","","","","","image-keyboard-response","411","2.0.0","440622","p20xng64d9m","p73","null","stimuli/playground_11.jpg","null","playground","G","non-repeat","null","357","stimuli/playground_11.jpg","","","","",""
"","","","","","image-keyboard-response","412","2.0.0","441626","p20xng64d9m","p73","null","stimuli/bar_29.jpg","null","bar","H","non-repeat","null","358","stimuli/bar_29.jpg","","","","",""
"","","","","","image-keyboard-response","413","2.0.0","442630","p20xng64d9m","p73","null","stimuli/stream_50.jpg","null","stream","I","non-repeat","null","359","stimuli/stream_50.jpg","","","","",""
"","","","","","image-keyboard-response","414","2.0.0","443634","p20xng64d9m","p73","null","stimuli/bathroom_36.jpg","null","bathroom","D","non-repeat","null","360","stimuli/bathroom_36.jpg","","","","",""
"","","","","","image-keyboard-response","415","2.0.0","444638","p20xng64d9m","p73","null","stimuli/field_49.jpg","null","field","E","non-repeat","null","361","stimuli/field_49.jpg","","","","",""
"","","","","","image-keyboard-response","416","2.0.0","445643","p20xng64d9m","p73","null","stimuli/coast_42.jpg","null","coast","F","non-repeat","null","362","stimuli/coast_42.jpg","","","","",""
"","","","","","image-keyboard-response","417","2.0.0","446647","p20xng64d9m","p73","null","stimuli/desert_4.jpg","null","desert","J","non-repeat","null","363","stimuli/desert_4.jpg","","","","",""
"","","","","","image-keyboard-response","418","2.0.0","447650","p20xng64d9m","p73","null","stimuli/woods_26.jpg","null","woods","K","non-repeat","null","364","stimuli/woods_26.jpg","","","","",""
"","","","","","image-keyboard-response","419","2.0.0","448653","p20xng64d9m","p73","null","stimuli/bridge_48.jpg","null","bridge","L","non-repeat","null","365","stimuli/bridge_48.jpg","","","","",""
"","","","","","image-keyboard-response","420","2.0.0","449656","p20xng64d9m","p73","null","stimuli/playground_11.jpg","null","playground","G","non-repeat","null","366","stimuli/playground_11.jpg","","","","",""
"","","","","","image-keyboard-response","421","2.0.0","450662","p20xng64d9m","p73","null","stimuli/bar_29.jpg","null","bar","H","non-repeat","null","367","stimuli/bar_29.jpg","","","","",""
"","","","","","image-keyboard-response","422","2.0.0","451666","p20xng64d9m","p73","null","stimuli/stream_50.jpg","null","stream","I","non-repeat","null","368","stimuli/stream_50.jpg","","","","",""
"","","","","","image-keyboard-response","423","2.0.0","452670","p20xng64d9m","p73","null","stimuli/street_66.jpg","null","street","A","non-repeat","null","369","stimuli/street_66.jpg","","","","",""
"","","","","","image-keyboard-response","424","2.0.0","453673","p20xng64d9m","p73","null","stimuli/gym_67.jpg","null","gym","B","non-repeat","null","370","stimuli/gym_67.jpg","","","","",""
"","","","","","image-keyboard-response","425","2.0.0","454677","p20xng64d9m","p73","null","stimuli/kitchen_6.jpg","null","kitchen","C","non-repeat","null","371","stimuli/kitchen_6.jpg","","","","",""
"","","","","","image-keyboard-response","426","2.0.0","455682","p20xng64d9m","p73","null","stimuli/bathroom_36.jpg","null","bathroom","D","non-repeat","null","372","stimuli/bathroom_36.jpg","","","","",""
"","","","","","image-keyboard-response","427","2.0.0","456685","p20xng64d9m","p73","null","stimuli/field_49.jpg","null","field","E","non-repeat","null","373","stimuli/field_49.jpg","","","","",""
"","","","","","image-keyboard-response","428","2.0.0","457688","p20xng64d9m","p73","null","stimuli/coast_42.jpg","null","coast","F","non-repeat","null","374","stimuli/coast_42.jpg","","","","",""
"","","","","","image-keyboard-response","429","2.0.0","458692","p20xng64d9m","p73","null","stimuli/playground_11.jpg","null","playground","G","non-repeat","null","375","stimuli/playground_11.jpg","","","","",""
"","","","","","image-keyboard-response","430","2.0.0","459696","p20xng64d9m","p73","null","stimuli/bar_29.jpg","null","bar","H","non-repeat","null","376","stimuli/bar_29.jpg","","","","",""
"","","","","","image-keyboard-response","431","2.0.0","460700","p20xng64d9m","p73","null","stimuli/stream_50.jpg","null","stream","I","non-repeat","null","377","stimuli/stream_50.jpg","","","","",""
"","","","","","image-keyboard-response","432","2.0.0","461703","p20xng64d9m","p73","null","stimuli/bathroom_36.jpg","null","bathroom","D","non-repeat","null","378","stimuli/bathroom_36.jpg","","","","",""
"","","","","","image-keyboard-response","433","2.0.0","462707","p20xng64d9m","p73","null","stimuli/bathroom_36.jpg","null","bathroom","D","repeat"," ","378","","","","","",""
"","","","","","image-keyboard-response","434","2.0.0","463711","p20xng64d9m","p73","null","stimuli/field_49.jpg","null","field","E","non-repeat","null","379","stimuli/field_49.jpg","","","","",""
"","","","","","image-keyboard-response","435","2.0.0","464715","p20xng64d9m","p73","null","stimuli/coast_42.jpg","null","coast","F","non-repeat","null","380","stimuli/coast_42.jpg","","","","",""
"","","","","","image-keyboard-response","436","2.0.0","465719","p20xng64d9m","p73","null","stimuli/street_66.jpg","null","street","A","non-repeat","null","381","stimuli/street_66.jpg","","","","",""
"","","","","","image-keyboard-response","437","2.0.0","466723","p20xng64d9m","p73","null","stimuli/gym_67.jpg","null","gym","B","non-repeat","null","382","stimuli/gym_67.jpg","","","","",""
"","","","","","image-keyboard-response","438","2.0.0","467728","p20xng64d9m","p73","null","stimuli/kitchen_6.jpg","null","kitchen","C","non-repeat","null","383","stimuli/kitchen_6.jpg","","","","",""
"","","","","","image-keyboard-response","439","2.0.0","468732","p20xng64d9m","p73","null","stimuli/desert_4.jpg","null","desert","J","non-repeat","null","384","stimuli/desert_4.jpg","","","","",""
"","","","","","image-keyboard-response","440","2.0.0","469736","p20xng64d9m","p73","null","stimuli/woods_26.jpg","null","woods","K","non-repeat","null","385","stimuli/woods_26.jpg","","","","",""
"","","","","","image-keyboard-response","441","2.0.0","470742","p20xng64d9m","p73","null","stimuli/bridge_48.jpg","null","bridge","L","non-repeat","null","386","stimuli/bridge_48.jpg","","","","",""
"","","","","","image-keyboard-response","442","2.0.0","471747","p20xng64d9m","p73","null","stimuli/street_66.jpg","null","street","A","non-repeat","null","387","stimuli/street_66.jpg","","","","",""
"","","","","","image-keyboard-response","443","2.0.0","472752","p20xng64d9m","p73","696","stimuli/street_66.jpg"," ","street","A","repeat"," ","387","","","","","",""
"","","","","","image-keyboard-response","444","2.0.0","473755","p20xng64d9m","p73","null","stimuli/gym_67.jpg","null","gym","B","non-repeat","null","388","stimuli/gym_67.jpg","","","","",""
"","","","","","image-keyboard-response","445","2.0.0","474759","p20xng64d9m","p73","null","stimuli/kitchen_6.jpg","null","kitchen","C","non-repeat","null","389","stimuli/kitchen_6.jpg","","","","",""
"","","","","","image-keyboard-response","446","2.0.0","475763","p20xng64d9m","p73","null","stimuli/bathroom_36.jpg","null","bathroom","D","non-repeat","null","390","stimuli/bathroom_36.jpg","","","","",""
"","","","","","image-keyboard-response","447","2.0.0","476767","p20xng64d9m","p73","null","stimuli/field_49.jpg","null","field","E","non-repeat","null","391","stimuli/field_49.jpg","","","","",""
"","","","","","image-keyboard-response","448","2.0.0","477771","p20xng64d9m","p73","null","stimuli/coast_42.jpg","null","coast","F","non-repeat","null","392","stimuli/coast_42.jpg","","","","",""
"","","","","","image-keyboard-response","449","2.0.0","478775","p20xng64d9m","p73","null","stimuli/playground_11.jpg","null","playground","G","non-repeat","null","393","stimuli/playground_11.jpg","","","","",""
"","","","","","image-keyboard-response","450","2.0.0","479778","p20xng64d9m","p73","null","stimuli/bar_29.jpg","null","bar","H","non-repeat","null","394","stimuli/bar_29.jpg","","","","",""
"","","","","","image-keyboard-response","451","2.0.0","480783","p20xng64d9m","p73","null","stimuli/stream_50.jpg","null","stream","I","non-repeat","null","395","stimuli/stream_50.jpg","","","","",""
"","","","","","image-keyboard-response","452","2.0.0","481787","p20xng64d9m","p73","null","stimuli/bathroom_36.jpg","null","bathroom","D","non-repeat","null","396","stimuli/bathroom_36.jpg","","","","",""
"","","","","","image-keyboard-response","453","2.0.0","482791","p20xng64d9m","p73","null","stimuli/field_49.jpg","null","field","E","non-repeat","null","397","stimuli/field_49.jpg","","","","",""
"","","","","","image-keyboard-response","454","2.0.0","483795","p20xng64d9m","p73","null","stimuli/coast_42.jpg","null","coast","F","non-repeat","null","398","stimuli/coast_42.jpg","","","","",""
"","","","","","image-keyboard-response","455","2.0.0","484800","p20xng64d9m","p73","null","stimuli/playground_11.jpg","null","playground","G","non-repeat","null","399","stimuli/playground_11.jpg","","","","",""
"","","","","","image-keyboard-response","456","2.0.0","485804","p20xng64d9m","p73","null","stimuli/bar_29.jpg","null","bar","H","non-repeat","null","400","stimuli/bar_29.jpg","","","","",""
"","","","","","image-keyboard-response","457","2.0.0","486809","p20xng64d9m","p73","null","stimuli/stream_50.jpg","null","stream","I","non-repeat","null","401","stimuli/stream_50.jpg","","","","",""
"","","","","","image-keyboard-response","458","2.0.0","487813","p20xng64d9m","p73","null","stimuli/street_66.jpg","null","street","A","non-repeat","null","402","stimuli/street_66.jpg","","","","",""
"","","","","","image-keyboard-response","459","2.0.0","488817","p20xng64d9m","p73","null","stimuli/gym_67.jpg","null","gym","B","non-repeat","null","403","stimuli/gym_67.jpg","","","","",""
"","","","","","image-keyboard-response","460","2.0.0","489821","p20xng64d9m","p73","null","stimuli/kitchen_6.jpg","null","kitchen","C","non-repeat","null","404","stimuli/kitchen_6.jpg","","","","",""
"","","","","","image-keyboard-response","461","2.0.0","490825","p20xng64d9m","p73","null","stimuli/bathroom_36.jpg","null","bathroom","D","non-repeat","null","405","stimuli/bathroom_36.jpg","","","","",""
"","","","","","image-keyboard-response","462","2.0.0","491829","p20xng64d9m","p73","null","stimuli/field_49.jpg","null","field","E","non-repeat","null","406","stimuli/field_49.jpg","","","","",""
"","","","","","image-keyboard-response","463","2.0.0","492834","p20xng64d9m","p73","null","stimuli/coast_42.jpg","null","coast","F","non-repeat","null","407","stimuli/coast_42.jpg","","","","",""
"","","","","","image-keyboard-response","464","2.0.0","493838","p20xng64d9m","p73","null","stimuli/playground_11.jpg","null","playground","G","non-repeat","null","408","stimuli/playground_11.jpg","","","","",""
"","","","","","image-keyboard-response","465","2.0.0","494842","p20xng64d9m","p73","null","stimuli/playground_11.jpg","null","playground","G","repeat"," ","408","","","","","",""
"","","","","","image-keyboard-response","466","2.0.0","495850","p20xng64d9m","p73","69","stimuli/bar_29.jpg"," ","bar","H","non-repeat","null","409","stimuli/bar_29.jpg","","","","",""
"","","","","","image-keyboard-response","467","2.0.0","496855","p20xng64d9m","p73","null","stimuli/stream_50.jpg","null","stream","I","non-repeat","null","410","stimuli/stream_50.jpg","","","","",""
"","","","","","image-keyboard-response","468","2.0.0","497859","p20xng64d9m","p73","null","stimuli/street_66.jpg","null","street","A","non-repeat","null","411","stimuli/street_66.jpg","","","","",""
"","","","","","image-keyboard-response","469","2.0.0","498863","p20xng64d9m","p73","null","stimuli/gym_67.jpg","null","gym","B","non-repeat","null","412","stimuli/gym_67.jpg","","","","",""
"","","","","","image-keyboard-response","470","2.0.0","499866","p20xng64d9m","p73","null","stimuli/kitchen_6.jpg","null","kitchen","C","non-repeat","null","413","stimuli/kitchen_6.jpg","","","","",""
"","","","","","image-keyboard-response","471","2.0.0","500870","p20xng64d9m","p73","null","stimuli/desert_4.jpg","null","desert","J","non-repeat","null","414","stimuli/desert_4.jpg","","","","",""
"","","","","","image-keyboard-response","472","2.0.0","501874","p20xng64d9m","p73","null","stimuli/woods_26.jpg","null","woods","K","non-repeat","null","415","stimuli/woods_26.jpg","","","","",""
"","","","","","image-keyboard-response","473","2.0.0","502879","p20xng64d9m","p73","null","stimuli/bridge_48.jpg","null","bridge","L","non-repeat","null","416","stimuli/bridge_48.jpg","","","","",""
"","","","","","image-keyboard-response","474","2.0.0","503882","p20xng64d9m","p73","null","stimuli/bathroom_36.jpg","null","bathroom","D","non-repeat","null","417","stimuli/bathroom_36.jpg","","","","",""
"","","","","","image-keyboard-response","475","2.0.0","504887","p20xng64d9m","p73","null","stimuli/field_49.jpg","null","field","E","non-repeat","null","418","stimuli/field_49.jpg","","","","",""
"","","","","","image-keyboard-response","476","2.0.0","505891","p20xng64d9m","p73","null","stimuli/coast_42.jpg","null","coast","F","non-repeat","null","419","stimuli/coast_42.jpg","","","","",""
"","","","","","image-keyboard-response","477","2.0.0","506896","p20xng64d9m","p73","null","stimuli/desert_4.jpg","null","desert","J","non-repeat","null","420","stimuli/desert_4.jpg","","","","",""
"","","","","","image-keyboard-response","478","2.0.0","507899","p20xng64d9m","p73","null","stimuli/woods_26.jpg","null","woods","K","non-repeat","null","421","stimuli/woods_26.jpg","","","","",""
"","","","","","image-keyboard-response","479","2.0.0","508904","p20xng64d9m","p73","null","stimuli/bridge_48.jpg","null","bridge","L","non-repeat","null","422","stimuli/bridge_48.jpg","","","","",""
"","","","","","image-keyboard-response","480","2.0.0","509908","p20xng64d9m","p73","null","stimuli/playground_11.jpg","null","playground","G","non-repeat","null","423","stimuli/playground_11.jpg","","","","",""
"","","","","","image-keyboard-response","481","2.0.0","510911","p20xng64d9m","p73","923","stimuli/playground_11.jpg"," ","playground","G","repeat"," ","423","","","","","",""
"","","","","","image-keyboard-response","482","2.0.0","511915","p20xng64d9m","p73","null","stimuli/bar_29.jpg","null","bar","H","non-repeat","null","424","stimuli/bar_29.jpg","","","","",""
"","","","","","image-keyboard-response","483","2.0.0","512919","p20xng64d9m","p73","null","stimuli/stream_50.jpg","null","stream","I","non-repeat","null","425","stimuli/stream_50.jpg","","","","",""
"","","","","","image-keyboard-response","484","2.0.0","513923","p20xng64d9m","p73","null","stimuli/stream_50.jpg","null","stream","I","repeat"," ","425","","","","","",""
"","","","","","image-keyboard-response","485","2.0.0","514928","p20xng64d9m","p73","null","stimuli/street_66.jpg","null","street","A","non-repeat","null","426","stimuli/street_66.jpg","","","","",""
"","","","","","image-keyboard-response","486","2.0.0","515932","p20xng64d9m","p73","null","stimuli/gym_67.jpg","null","gym","B","non-repeat","null","427","stimuli/gym_67.jpg","","","","",""
"","","","","","image-keyboard-response","487","2.0.0","516936","p20xng64d9m","p73","null","stimuli/kitchen_6.jpg","null","kitchen","C","non-repeat","null","428","stimuli/kitchen_6.jpg","","","","",""
"","","","","","html-keyboard-response","488","2.0.0","529416","p20xng64d9m","p73","12478","
    <div style='width:900px;margin: auto;'><p>In the next part of the experiment, we want to see how well you learned the structure in the stream of images.</p>
    <p>On each trial, you will see two sequences of three images, sequence 1 and 2. We will ask you to indicate which sequence was more familiar based on the first part of the experiment.</p>
    <p>Press 1 if the first sequence (sequence 1) felt more familiar. Press 2 if the second sequence (sequence 2) felt more familiar.</p>
    <p>Press any key to begin.</p></div>"," ","","","","","","","","","","",""
"","","","","","html-keyboard-response","489","2.0.0","530420","p20xng64d9m","p73","null","<p>Sequence 1</p>","null","","","","","","","","","","",""
"","","","","","image-keyboard-response","490","2.0.0","531425","p20xng64d9m","p73","null","stimuli/street_66.jpg","null","","","","","","","","","","",""
"","","","","","image-keyboard-response","491","2.0.0","532429","p20xng64d9m","p73","null","stimuli/field_49.jpg","null","","","","","","","","","","",""
"","","","","","image-keyboard-response","492","2.0.0","533433","p20xng64d9m","p73","null","stimuli/stream_50.jpg","null","","","","","","","","","","",""
"","","","","","html-keyboard-response","493","2.0.0","534437","p20xng64d9m","p73","null","<p></p>","null","","","","","","","","","","",""
"","","","","","html-keyboard-response","494","2.0.0","535440","p20xng64d9m","p73","null","<p>Sequence 2</p>","null","","","","","","","","","","",""
"","","","","","image-keyboard-response","495","2.0.0","536444","p20xng64d9m","p73","null","stimuli/playground_11.jpg","null","","","","","","","","","","",""
"","","","","","image-keyboard-response","496","2.0.0","537449","p20xng64d9m","p73","null","stimuli/bar_29.jpg","null","","","","","","","","","","",""
"","","","","","image-keyboard-response","497","2.0.0","538453","p20xng64d9m","p73","null","stimuli/stream_50.jpg","null","","","","","","","","","","",""
"","","","","","html-keyboard-response","498","2.0.0","539963","p20xng64d9m","p73","1509","<p>Press '1' if the first sequence was familiar, '2' if the second was.</p>","2","","","2","","","","[""G"",""H"",""I""]","[""A"",""E"",""I""]","true","[""<p>Sequence 1</p>"",""stimuli/street_66.jpg"",""stimuli/field_49.jpg"",""stimuli/stream_50.jpg""]","[""<p>Sequence 2</p>"",""stimuli/playground_11.jpg"",""stimuli/bar_29.jpg"",""stimuli/stream_50.jpg""]"
"","","","","","html-keyboard-response","499","2.0.0","540966","p20xng64d9m","p73","null","<p>Sequence 1</p>","null","","","","","","","","","","",""
"","","","","","image-keyboard-response","500","2.0.0","541968","p20xng64d9m","p73","null","stimuli/street_66.jpg","null","","","","","","","","","","",""
"","","","","","image-keyboard-response","501","2.0.0","542973","p20xng64d9m","p73","null","stimuli/gym_67.jpg","null","","","","","","","","","","",""
"","","","","","image-keyboard-response","502","2.0.0","543977","p20xng64d9m","p73","null","stimuli/kitchen_6.jpg","null","","","","","","","","","","",""
"","","","","","html-keyboard-response","503","2.0.0","544980","p20xng64d9m","p73","null","<p></p>","null","","","","","","","","","","",""
"","","","","","html-keyboard-response","504","2.0.0","545984","p20xng64d9m","p73","null","<p>Sequence 2</p>","null","","","","","","","","","","",""
"","","","","","image-keyboard-response","505","2.0.0","546987","p20xng64d9m","p73","null","stimuli/desert_4.jpg","null","","","","","","","","","","",""
"","","","","","image-keyboard-response","506","2.0.0","547990","p20xng64d9m","p73","null","stimuli/gym_67.jpg","null","","","","","","","","","","",""
"","","","","","image-keyboard-response","507","2.0.0","548993","p20xng64d9m","p73","null","stimuli/coast_42.jpg","null","","","","","","","","","","",""
