"success","timeout","failed_images","failed_audio","failed_video","trial_type","trial_index","plugin_version","time_elapsed","random_id","participant","rt","stimulus","response","category","letter","correct_response","correct_response_key","trial_counter","current_image","test_triplet","foil_triplet","correct","firstSequencePaths","secondSequencePaths"
"true","false","[]","[]","[]","preload","0","2.0.0","1727","p27z2chwkn6","tardigrade666","","","","","","","","","","","","","",""
"true","","","","","fullscreen","1","null","5909","p27z2chwkn6","tardigrade666","3177","","","","","","","","","","","","",""
"","","","","","html-keyboard-response","2","2.0.0","7907","p27z2chwkn6","tardigrade666","1994","Welcome to the experiment. Press any key to begin.","f","","","","","","","","","","",""
"","","","","","survey-text","3","2.0.0","16485","p27z2chwkn6","tardigrade666","8572","","{""participant_id"":""tardigrade666""}","","","","","","","","","","",""
"","","","","","html-keyboard-response","4","2.0.0","27370","p27z2chwkn6","tardigrade666","10883","
  <p>For this trial, you will see a series of images.</p>
  <p><b>Press the spacebar whenever you see the same image appear twice in a row.</b></p>
  <p>In other words, whenever the same image repeats back to back, press the spacebar.</p>
  <p>Press any key to begin.</p>","j","","","","","","","","","","",""
"","","","","","image-keyboard-response","5","2.0.0","28377","p27z2chwkn6","tardigrade666","null","stimuli/bar_63.jpg","null","bar","D","non-repeat","null","0","stimuli/bar_63.jpg","","","","",""
"","","","","","image-keyboard-response","6","2.0.0","29384","p27z2chwkn6","tardigrade666","null","stimuli/bathroom_50.jpg","null","bathroom","E","non-repeat","null","1","stimuli/bathroom_50.jpg","","","","",""
"","","","","","image-keyboard-response","7","2.0.0","30389","p27z2chwkn6","tardigrade666","null","stimuli/playground_60.jpg","null","playground","F","non-repeat","null","2","stimuli/playground_60.jpg","","","","",""
"","","","","","image-keyboard-response","8","2.0.0","31396","p27z2chwkn6","tardigrade666","651","stimuli/playground_60.jpg"," ","playground","F","repeat"," ","2","","","","","",""
"","","","","","image-keyboard-response","9","2.0.0","32401","p27z2chwkn6","tardigrade666","null","stimuli/field_12.jpg","null","field","J","non-repeat","null","3","stimuli/field_12.jpg","","","","",""
"","","","","","image-keyboard-response","10","2.0.0","33407","p27z2chwkn6","tardigrade666","null","stimuli/woods_23.jpg","null","woods","K","non-repeat","null","4","stimuli/woods_23.jpg","","","","",""
"","","","","","image-keyboard-response","11","2.0.0","34412","p27z2chwkn6","tardigrade666","null","stimuli/stream_16.jpg","null","stream","L","non-repeat","null","5","stimuli/stream_16.jpg","","","","",""
"","","","","","image-keyboard-response","12","2.0.0","35417","p27z2chwkn6","tardigrade666","null","stimuli/bridge_21.jpg","null","bridge","G","non-repeat","null","6","stimuli/bridge_21.jpg","","","","",""
"","","","","","image-keyboard-response","13","2.0.0","36422","p27z2chwkn6","tardigrade666","699","stimuli/bridge_21.jpg"," ","bridge","G","repeat"," ","6","","","","","",""
"","","","","","image-keyboard-response","14","2.0.0","37427","p27z2chwkn6","tardigrade666","null","stimuli/gym_10.jpg","null","gym","H","non-repeat","null","7","stimuli/gym_10.jpg","","","","",""
"","","","","","image-keyboard-response","15","2.0.0","38431","p27z2chwkn6","tardigrade666","null","stimuli/coast_29.jpg","null","coast","I","non-repeat","null","8","stimuli/coast_29.jpg","","","","",""
"","","","","","image-keyboard-response","16","2.0.0","39434","p27z2chwkn6","tardigrade666","540","stimuli/coast_29.jpg"," ","coast","I","repeat"," ","8","","","","","",""
"","","","","","image-keyboard-response","17","2.0.0","40437","p27z2chwkn6","tardigrade666","null","stimuli/desert_37.jpg","null","desert","A","non-repeat","null","9","stimuli/desert_37.jpg","","","","",""
"","","","","","image-keyboard-response","18","2.0.0","41442","p27z2chwkn6","tardigrade666","602","stimuli/desert_37.jpg"," ","desert","A","repeat"," ","9","","","","","",""
"","","","","","image-keyboard-response","19","2.0.0","42447","p27z2chwkn6","tardigrade666","null","stimuli/kitchen_63.jpg","null","kitchen","B","non-repeat","null","10","stimuli/kitchen_63.jpg","","","","",""
"","","","","","image-keyboard-response","20","2.0.0","43452","p27z2chwkn6","tardigrade666","null","stimuli/street_51.jpg","null","street","C","non-repeat","null","11","stimuli/street_51.jpg","","","","",""
"","","","","","image-keyboard-response","21","2.0.0","44457","p27z2chwkn6","tardigrade666","null","stimuli/field_12.jpg","null","field","J","non-repeat","null","12","stimuli/field_12.jpg","","","","",""
"","","","","","image-keyboard-response","22","2.0.0","45462","p27z2chwkn6","tardigrade666","null","stimuli/woods_23.jpg","null","woods","K","non-repeat","null","13","stimuli/woods_23.jpg","","","","",""
"","","","","","image-keyboard-response","23","2.0.0","46468","p27z2chwkn6","tardigrade666","null","stimuli/stream_16.jpg","null","stream","L","non-repeat","null","14","stimuli/stream_16.jpg","","","","",""
"","","","","","image-keyboard-response","24","2.0.0","47473","p27z2chwkn6","tardigrade666","null","stimuli/bridge_21.jpg","null","bridge","G","non-repeat","null","15","stimuli/bridge_21.jpg","","","","",""
"","","","","","image-keyboard-response","25","2.0.0","48478","p27z2chwkn6","tardigrade666","null","stimuli/gym_10.jpg","null","gym","H","non-repeat","null","16","stimuli/gym_10.jpg","","","","",""
"","","","","","image-keyboard-response","26","2.0.0","49482","p27z2chwkn6","tardigrade666","null","stimuli/coast_29.jpg","null","coast","I","non-repeat","null","17","stimuli/coast_29.jpg","","","","",""
"","","","","","image-keyboard-response","27","2.0.0","50487","p27z2chwkn6","tardigrade666","null","stimuli/bar_63.jpg","null","bar","D","non-repeat","null","18","stimuli/bar_63.jpg","","","","",""
"","","","","","image-keyboard-response","28","2.0.0","51492","p27z2chwkn6","tardigrade666","null","stimuli/bathroom_50.jpg","null","bathroom","E","non-repeat","null","19","stimuli/bathroom_50.jpg","","","","",""
"","","","","","image-keyboard-response","29","2.0.0","52497","p27z2chwkn6","tardigrade666","null","stimuli/playground_60.jpg","null","playground","F","non-repeat","null","20","stimuli/playground_60.jpg","","","","",""
"","","","","","image-keyboard-response","30","2.0.0","53503","p27z2chwkn6","tardigrade666","null","stimuli/bridge_21.jpg","null","bridge","G","non-repeat","null","21","stimuli/bridge_21.jpg","","","","",""
"","","","","","image-keyboard-response","31","2.0.0","54508","p27z2chwkn6","tardigrade666","null","stimuli/gym_10.jpg","null","gym","H","non-repeat","null","22","stimuli/gym_10.jpg","","","","",""
"","","","","","image-keyboard-response","32","2.0.0","55513","p27z2chwkn6","tardigrade666","null","stimuli/coast_29.jpg","null","coast","I","non-repeat","null","23","stimuli/coast_29.jpg","","","","",""
"","","","","","image-keyboard-response","33","2.0.0","56517","p27z2chwkn6","tardigrade666","null","stimuli/field_12.jpg","null","field","J","non-repeat","null","24","stimuli/field_12.jpg","","","","",""
"","","","","","image-keyboard-response","34","2.0.0","57522","p27z2chwkn6","tardigrade666","null","stimuli/woods_23.jpg","null","woods","K","non-repeat","null","25","stimuli/woods_23.jpg","","","","",""
"","","","","","image-keyboard-response","35","2.0.0","58527","p27z2chwkn6","tardigrade666","null","stimuli/stream_16.jpg","null","stream","L","non-repeat","null","26","stimuli/stream_16.jpg","","","","",""
"","","","","","image-keyboard-response","36","2.0.0","59531","p27z2chwkn6","tardigrade666","null","stimuli/bridge_21.jpg","null","bridge","G","non-repeat","null","27","stimuli/bridge_21.jpg","","","","",""
"","","","","","image-keyboard-response","37","2.0.0","60536","p27z2chwkn6","tardigrade666","null","stimuli/gym_10.jpg","null","gym","H","non-repeat","null","28","stimuli/gym_10.jpg","","","","",""
"","","","","","image-keyboard-response","38","2.0.0","61541","p27z2chwkn6","tardigrade666","null","stimuli/coast_29.jpg","null","coast","I","non-repeat","null","29","stimuli/coast_29.jpg","","","","",""
"","","","","","image-keyboard-response","39","2.0.0","62546","p27z2chwkn6","tardigrade666","null","stimuli/desert_37.jpg","null","desert","A","non-repeat","null","30","stimuli/desert_37.jpg","","","","",""
"","","","","","image-keyboard-response","40","2.0.0","63550","p27z2chwkn6","tardigrade666","null","stimuli/kitchen_63.jpg","null","kitchen","B","non-repeat","null","31","stimuli/kitchen_63.jpg","","","","",""
"","","","","","image-keyboard-response","41","2.0.0","64556","p27z2chwkn6","tardigrade666","null","stimuli/street_51.jpg","null","street","C","non-repeat","null","32","stimuli/street_51.jpg","","","","",""
"","","","","","image-keyboard-response","42","2.0.0","65561","p27z2chwkn6","tardigrade666","602","stimuli/street_51.jpg"," ","street","C","repeat"," ","32","","","","","",""
"","","","","","image-keyboard-response","43","2.0.0","66565","p27z2chwkn6","tardigrade666","null","stimuli/bridge_21.jpg","null","bridge","G","non-repeat","null","33","stimuli/bridge_21.jpg","","","","",""
"","","","","","image-keyboard-response","44","2.0.0","67571","p27z2chwkn6","tardigrade666","null","stimuli/gym_10.jpg","null","gym","H","non-repeat","null","34","stimuli/gym_10.jpg","","","","",""
"","","","","","image-keyboard-response","45","2.0.0","68575","p27z2chwkn6","tardigrade666","null","stimuli/coast_29.jpg","null","coast","I","non-repeat","null","35","stimuli/coast_29.jpg","","","","",""
"","","","","","image-keyboard-response","46","2.0.0","69579","p27z2chwkn6","tardigrade666","null","stimuli/desert_37.jpg","null","desert","A","non-repeat","null","36","stimuli/desert_37.jpg","","","","",""
"","","","","","image-keyboard-response","47","2.0.0","70583","p27z2chwkn6","tardigrade666","null","stimuli/kitchen_63.jpg","null","kitchen","B","non-repeat","null","37","stimuli/kitchen_63.jpg","","","","",""
"","","","","","image-keyboard-response","48","2.0.0","71586","p27z2chwkn6","tardigrade666","null","stimuli/street_51.jpg","null","street","C","non-repeat","null","38","stimuli/street_51.jpg","","","","",""
"","","","","","image-keyboard-response","49","2.0.0","72591","p27z2chwkn6","tardigrade666","509","stimuli/street_51.jpg"," ","street","C","repeat"," ","38","","","","","",""
"","","","","","image-keyboard-response","50","2.0.0","73596","p27z2chwkn6","tardigrade666","null","stimuli/field_12.jpg","null","field","J","non-repeat","null","39","stimuli/field_12.jpg","","","","",""
"","","","","","image-keyboard-response","51","2.0.0","74601","p27z2chwkn6","tardigrade666","null","stimuli/woods_23.jpg","null","woods","K","non-repeat","null","40","stimuli/woods_23.jpg","","","","",""
"","","","","","image-keyboard-response","52","2.0.0","75606","p27z2chwkn6","tardigrade666","null","stimuli/stream_16.jpg","null","stream","L","non-repeat","null","41","stimuli/stream_16.jpg","","","","",""
"","","","","","image-keyboard-response","53","2.0.0","76611","p27z2chwkn6","tardigrade666","null","stimuli/desert_37.jpg","null","desert","A","non-repeat","null","42","stimuli/desert_37.jpg","","","","",""
"","","","","","image-keyboard-response","54","2.0.0","77616","p27z2chwkn6","tardigrade666","null","stimuli/desert_37.jpg","null","desert","A","repeat"," ","42","","","","","",""
"","","","","","image-keyboard-response","55","2.0.0","78622","p27z2chwkn6","tardigrade666","null","stimuli/kitchen_63.jpg","null","kitchen","B","non-repeat","null","43","stimuli/kitchen_63.jpg","","","","",""
"","","","","","image-keyboard-response","56","2.0.0","79626","p27z2chwkn6","tardigrade666","null","stimuli/street_51.jpg","null","street","C","non-repeat","null","44","stimuli/street_51.jpg","","","","",""
"","","","","","image-keyboard-response","57","2.0.0","80632","p27z2chwkn6","tardigrade666","null","stimuli/bar_63.jpg","null","bar","D","non-repeat","null","45","stimuli/bar_63.jpg","","","","",""
"","","","","","image-keyboard-response","58","2.0.0","81637","p27z2chwkn6","tardigrade666","null","stimuli/bathroom_50.jpg","null","bathroom","E","non-repeat","null","46","stimuli/bathroom_50.jpg","","","","",""
"","","","","","image-keyboard-response","59","2.0.0","82641","p27z2chwkn6","tardigrade666","null","stimuli/playground_60.jpg","null","playground","F","non-repeat","null","47","stimuli/playground_60.jpg","","","","",""
"","","","","","image-keyboard-response","60","2.0.0","83646","p27z2chwkn6","tardigrade666","476","stimuli/playground_60.jpg"," ","playground","F","repeat"," ","47","","","","","",""
"","","","","","image-keyboard-response","61","2.0.0","84652","p27z2chwkn6","tardigrade666","null","stimuli/desert_37.jpg","null","desert","A","non-repeat","null","48","stimuli/desert_37.jpg","","","","",""
"","","","","","image-keyboard-response","62","2.0.0","85657","p27z2chwkn6","tardigrade666","null","stimuli/kitchen_63.jpg","null","kitchen","B","non-repeat","null","49","stimuli/kitchen_63.jpg","","","","",""
"","","","","","image-keyboard-response","63","2.0.0","86663","p27z2chwkn6","tardigrade666","null","stimuli/street_51.jpg","null","street","C","non-repeat","null","50","stimuli/street_51.jpg","","","","",""
"","","","","","image-keyboard-response","64","2.0.0","87668","p27z2chwkn6","tardigrade666","null","stimuli/field_12.jpg","null","field","J","non-repeat","null","51","stimuli/field_12.jpg","","","","",""
"","","","","","image-keyboard-response","65","2.0.0","88674","p27z2chwkn6","tardigrade666","null","stimuli/woods_23.jpg","null","woods","K","non-repeat","null","52","stimuli/woods_23.jpg","","","","",""
"","","","","","image-keyboard-response","66","2.0.0","89679","p27z2chwkn6","tardigrade666","null","stimuli/stream_16.jpg","null","stream","L","non-repeat","null","53","stimuli/stream_16.jpg","","","","",""
"","","","","","image-keyboard-response","67","2.0.0","90685","p27z2chwkn6","tardigrade666","null","stimuli/bridge_21.jpg","null","bridge","G","non-repeat","null","54","stimuli/bridge_21.jpg","","","","",""
"","","","","","image-keyboard-response","68","2.0.0","91690","p27z2chwkn6","tardigrade666","null","stimuli/gym_10.jpg","null","gym","H","non-repeat","null","55","stimuli/gym_10.jpg","","","","",""
"","","","","","image-keyboard-response","69","2.0.0","92695","p27z2chwkn6","tardigrade666","null","stimuli/coast_29.jpg","null","coast","I","non-repeat","null","56","stimuli/coast_29.jpg","","","","",""
"","","","","","image-keyboard-response","70","2.0.0","93700","p27z2chwkn6","tardigrade666","762","stimuli/coast_29.jpg"," ","coast","I","repeat"," ","56","","","","","",""
"","","","","","image-keyboard-response","71","2.0.0","94705","p27z2chwkn6","tardigrade666","null","stimuli/field_12.jpg","null","field","J","non-repeat","null","57","stimuli/field_12.jpg","","","","",""
"","","","","","image-keyboard-response","72","2.0.0","95710","p27z2chwkn6","tardigrade666","null","stimuli/woods_23.jpg","null","woods","K","non-repeat","null","58","stimuli/woods_23.jpg","","","","",""
"","","","","","image-keyboard-response","73","2.0.0","96715","p27z2chwkn6","tardigrade666","null","stimuli/stream_16.jpg","null","stream","L","non-repeat","null","59","stimuli/stream_16.jpg","","","","",""
"","","","","","image-keyboard-response","74","2.0.0","97719","p27z2chwkn6","tardigrade666","null","stimuli/desert_37.jpg","null","desert","A","non-repeat","null","60","stimuli/desert_37.jpg","","","","",""
"","","","","","image-keyboard-response","75","2.0.0","98723","p27z2chwkn6","tardigrade666","397","stimuli/desert_37.jpg"," ","desert","A","repeat"," ","60","","","","","",""
"","","","","","image-keyboard-response","76","2.0.0","99726","p27z2chwkn6","tardigrade666","null","stimuli/kitchen_63.jpg","null","kitchen","B","non-repeat","null","61","stimuli/kitchen_63.jpg","","","","",""
"","","","","","image-keyboard-response","77","2.0.0","100730","p27z2chwkn6","tardigrade666","null","stimuli/street_51.jpg","null","street","C","non-repeat","null","62","stimuli/street_51.jpg","","","","",""
"","","","","","image-keyboard-response","78","2.0.0","101733","p27z2chwkn6","tardigrade666","null","stimuli/bar_63.jpg","null","bar","D","non-repeat","null","63","stimuli/bar_63.jpg","","","","",""
"","","","","","image-keyboard-response","79","2.0.0","102738","p27z2chwkn6","tardigrade666","378","stimuli/bar_63.jpg"," ","bar","D","repeat"," ","63","","","","","",""
"","","","","","image-keyboard-response","80","2.0.0","103744","p27z2chwkn6","tardigrade666","null","stimuli/bathroom_50.jpg","null","bathroom","E","non-repeat","null","64","stimuli/bathroom_50.jpg","","","","",""
"","","","","","image-keyboard-response","81","2.0.0","104749","p27z2chwkn6","tardigrade666","null","stimuli/playground_60.jpg","null","playground","F","non-repeat","null","65","stimuli/playground_60.jpg","","","","",""
"","","","","","image-keyboard-response","82","2.0.0","105755","p27z2chwkn6","tardigrade666","null","stimuli/field_12.jpg","null","field","J","non-repeat","null","66","stimuli/field_12.jpg","","","","",""
"","","","","","image-keyboard-response","83","2.0.0","106760","p27z2chwkn6","tardigrade666","null","stimuli/woods_23.jpg","null","woods","K","non-repeat","null","67","stimuli/woods_23.jpg","","","","",""
"","","","","","image-keyboard-response","84","2.0.0","107765","p27z2chwkn6","tardigrade666","null","stimuli/stream_16.jpg","null","stream","L","non-repeat","null","68","stimuli/stream_16.jpg","","","","",""
"","","","","","image-keyboard-response","85","2.0.0","108770","p27z2chwkn6","tardigrade666","null","stimuli/desert_37.jpg","null","desert","A","non-repeat","null","69","stimuli/desert_37.jpg","","","","",""
"","","","","","image-keyboard-response","86","2.0.0","109774","p27z2chwkn6","tardigrade666","null","stimuli/kitchen_63.jpg","null","kitchen","B","non-repeat","null","70","stimuli/kitchen_63.jpg","","","","",""
"","","","","","image-keyboard-response","87","2.0.0","110780","p27z2chwkn6","tardigrade666","null","stimuli/street_51.jpg","null","street","C","non-repeat","null","71","stimuli/street_51.jpg","","","","",""
"","","","","","image-keyboard-response","88","2.0.0","111785","p27z2chwkn6","tardigrade666","532","stimuli/street_51.jpg"," ","street","C","repeat"," ","71","","","","","",""
"","","","","","image-keyboard-response","89","2.0.0","112790","p27z2chwkn6","tardigrade666","null","stimuli/bridge_21.jpg","null","bridge","G","non-repeat","null","72","stimuli/bridge_21.jpg","","","","",""
"","","","","","image-keyboard-response","90","2.0.0","113795","p27z2chwkn6","tardigrade666","457","stimuli/bridge_21.jpg"," ","bridge","G","repeat"," ","72","","","","","",""
"","","","","","image-keyboard-response","91","2.0.0","114800","p27z2chwkn6","tardigrade666","null","stimuli/gym_10.jpg","null","gym","H","non-repeat","null","73","stimuli/gym_10.jpg","","","","",""
"","","","","","image-keyboard-response","92","2.0.0","115805","p27z2chwkn6","tardigrade666","null","stimuli/coast_29.jpg","null","coast","I","non-repeat","null","74","stimuli/coast_29.jpg","","","","",""
"","","","","","image-keyboard-response","93","2.0.0","116824","p27z2chwkn6","tardigrade666","null","stimuli/bar_63.jpg","null","bar","D","non-repeat","null","75","stimuli/bar_63.jpg","","","","",""
"","","","","","image-keyboard-response","94","2.0.0","117830","p27z2chwkn6","tardigrade666","null","stimuli/bathroom_50.jpg","null","bathroom","E","non-repeat","null","76","stimuli/bathroom_50.jpg","","","","",""
"","","","","","image-keyboard-response","95","2.0.0","118835","p27z2chwkn6","tardigrade666","null","stimuli/playground_60.jpg","null","playground","F","non-repeat","null","77","stimuli/playground_60.jpg","","","","",""
"","","","","","image-keyboard-response","96","2.0.0","119840","p27z2chwkn6","tardigrade666","524","stimuli/playground_60.jpg"," ","playground","F","repeat"," ","77","","","","","",""
"","","","","","image-keyboard-response","97","2.0.0","120845","p27z2chwkn6","tardigrade666","null","stimuli/field_12.jpg","null","field","J","non-repeat","null","78","stimuli/field_12.jpg","","","","",""
"","","","","","image-keyboard-response","98","2.0.0","121851","p27z2chwkn6","tardigrade666","null","stimuli/woods_23.jpg","null","woods","K","non-repeat","null","79","stimuli/woods_23.jpg","","","","",""
"","","","","","image-keyboard-response","99","2.0.0","122856","p27z2chwkn6","tardigrade666","null","stimuli/stream_16.jpg","null","stream","L","non-repeat","null","80","stimuli/stream_16.jpg","","","","",""
"","","","","","image-keyboard-response","100","2.0.0","123861","p27z2chwkn6","tardigrade666","null","stimuli/desert_37.jpg","null","desert","A","non-repeat","null","81","stimuli/desert_37.jpg","","","","",""
"","","","","","image-keyboard-response","101","2.0.0","124866","p27z2chwkn6","tardigrade666","null","stimuli/kitchen_63.jpg","null","kitchen","B","non-repeat","null","82","stimuli/kitchen_63.jpg","","","","",""
"","","","","","image-keyboard-response","102","2.0.0","125872","p27z2chwkn6","tardigrade666","null","stimuli/street_51.jpg","null","street","C","non-repeat","null","83","stimuli/street_51.jpg","","","","",""
"","","","","","image-keyboard-response","103","2.0.0","126877","p27z2chwkn6","tardigrade666","null","stimuli/bar_63.jpg","null","bar","D","non-repeat","null","84","stimuli/bar_63.jpg","","","","",""
"","","","","","image-keyboard-response","104","2.0.0","127883","p27z2chwkn6","tardigrade666","null","stimuli/bathroom_50.jpg","null","bathroom","E","non-repeat","null","85","stimuli/bathroom_50.jpg","","","","",""
"","","","","","image-keyboard-response","105","2.0.0","128887","p27z2chwkn6","tardigrade666","null","stimuli/playground_60.jpg","null","playground","F","non-repeat","null","86","stimuli/playground_60.jpg","","","","",""
"","","","","","image-keyboard-response","106","2.0.0","129891","p27z2chwkn6","tardigrade666","null","stimuli/bridge_21.jpg","null","bridge","G","non-repeat","null","87","stimuli/bridge_21.jpg","","","","",""
"","","","","","image-keyboard-response","107","2.0.0","130895","p27z2chwkn6","tardigrade666","null","stimuli/gym_10.jpg","null","gym","H","non-repeat","null","88","stimuli/gym_10.jpg","","","","",""
"","","","","","image-keyboard-response","108","2.0.0","131899","p27z2chwkn6","tardigrade666","null","stimuli/coast_29.jpg","null","coast","I","non-repeat","null","89","stimuli/coast_29.jpg","","","","",""
"","","","","","image-keyboard-response","109","2.0.0","132904","p27z2chwkn6","tardigrade666","null","stimuli/bar_63.jpg","null","bar","D","non-repeat","null","90","stimuli/bar_63.jpg","","","","",""
"","","","","","image-keyboard-response","110","2.0.0","133910","p27z2chwkn6","tardigrade666","null","stimuli/bathroom_50.jpg","null","bathroom","E","non-repeat","null","91","stimuli/bathroom_50.jpg","","","","",""
"","","","","","image-keyboard-response","111","2.0.0","134915","p27z2chwkn6","tardigrade666","null","stimuli/playground_60.jpg","null","playground","F","non-repeat","null","92","stimuli/playground_60.jpg","","","","",""
"","","","","","image-keyboard-response","112","2.0.0","135920","p27z2chwkn6","tardigrade666","null","stimuli/desert_37.jpg","null","desert","A","non-repeat","null","93","stimuli/desert_37.jpg","","","","",""
"","","","","","image-keyboard-response","113","2.0.0","136925","p27z2chwkn6","tardigrade666","null","stimuli/kitchen_63.jpg","null","kitchen","B","non-repeat","null","94","stimuli/kitchen_63.jpg","","","","",""
"","","","","","image-keyboard-response","114","2.0.0","137929","p27z2chwkn6","tardigrade666","null","stimuli/street_51.jpg","null","street","C","non-repeat","null","95","stimuli/street_51.jpg","","","","",""
"","","","","","image-keyboard-response","115","2.0.0","138935","p27z2chwkn6","tardigrade666","560","stimuli/street_51.jpg"," ","street","C","repeat"," ","95","","","","","",""
"","","","","","image-keyboard-response","116","2.0.0","139940","p27z2chwkn6","tardigrade666","null","stimuli/bridge_21.jpg","null","bridge","G","non-repeat","null","96","stimuli/bridge_21.jpg","","","","",""
"","","","","","image-keyboard-response","117","2.0.0","140945","p27z2chwkn6","tardigrade666","null","stimuli/gym_10.jpg","null","gym","H","non-repeat","null","97","stimuli/gym_10.jpg","","","","",""
"","","","","","image-keyboard-response","118","2.0.0","141951","p27z2chwkn6","tardigrade666","null","stimuli/coast_29.jpg","null","coast","I","non-repeat","null","98","stimuli/coast_29.jpg","","","","",""
"","","","","","image-keyboard-response","119","2.0.0","142956","p27z2chwkn6","tardigrade666","null","stimuli/coast_29.jpg","null","coast","I","repeat"," ","98","","","","","",""
"","","","","","image-keyboard-response","120","2.0.0","143961","p27z2chwkn6","tardigrade666","null","stimuli/desert_37.jpg","null","desert","A","non-repeat","null","99","stimuli/desert_37.jpg","","","","",""
"","","","","","image-keyboard-response","121","2.0.0","144966","p27z2chwkn6","tardigrade666","null","stimuli/kitchen_63.jpg","null","kitchen","B","non-repeat","null","100","stimuli/kitchen_63.jpg","","","","",""
"","","","","","image-keyboard-response","122","2.0.0","145972","p27z2chwkn6","tardigrade666","null","stimuli/street_51.jpg","null","street","C","non-repeat","null","101","stimuli/street_51.jpg","","","","",""
"","","","","","image-keyboard-response","123","2.0.0","146977","p27z2chwkn6","tardigrade666","null","stimuli/field_12.jpg","null","field","J","non-repeat","null","102","stimuli/field_12.jpg","","","","",""
"","","","","","image-keyboard-response","124","2.0.0","147982","p27z2chwkn6","tardigrade666","604","stimuli/field_12.jpg"," ","field","J","repeat"," ","102","","","","","",""
"","","","","","image-keyboard-response","125","2.0.0","148987","p27z2chwkn6","tardigrade666","null","stimuli/woods_23.jpg","null","woods","K","non-repeat","null","103","stimuli/woods_23.jpg","","","","",""
"","","","","","image-keyboard-response","126","2.0.0","149992","p27z2chwkn6","tardigrade666","null","stimuli/stream_16.jpg","null","stream","L","non-repeat","null","104","stimuli/stream_16.jpg","","","","",""
"","","","","","image-keyboard-response","127","2.0.0","150997","p27z2chwkn6","tardigrade666","null","stimuli/stream_16.jpg","null","stream","L","repeat"," ","104","","","","","",""
"","","","","","image-keyboard-response","128","2.0.0","152002","p27z2chwkn6","tardigrade666","null","stimuli/bar_63.jpg","null","bar","D","non-repeat","null","105","stimuli/bar_63.jpg","","","","",""
"","","","","","image-keyboard-response","129","2.0.0","153007","p27z2chwkn6","tardigrade666","558","stimuli/bar_63.jpg"," ","bar","D","repeat"," ","105","","","","","",""
"","","","","","image-keyboard-response","130","2.0.0","154012","p27z2chwkn6","tardigrade666","null","stimuli/bathroom_50.jpg","null","bathroom","E","non-repeat","null","106","stimuli/bathroom_50.jpg","","","","",""
"","","","","","image-keyboard-response","131","2.0.0","155017","p27z2chwkn6","tardigrade666","null","stimuli/playground_60.jpg","null","playground","F","non-repeat","null","107","stimuli/playground_60.jpg","","","","",""
"","","","","","image-keyboard-response","132","2.0.0","156023","p27z2chwkn6","tardigrade666","null","stimuli/bridge_21.jpg","null","bridge","G","non-repeat","null","108","stimuli/bridge_21.jpg","","","","",""
"","","","","","image-keyboard-response","133","2.0.0","157028","p27z2chwkn6","tardigrade666","null","stimuli/bridge_21.jpg","null","bridge","G","repeat"," ","108","","","","","",""
"","","","","","image-keyboard-response","134","2.0.0","158033","p27z2chwkn6","tardigrade666","null","stimuli/gym_10.jpg","null","gym","H","non-repeat","null","109","stimuli/gym_10.jpg","","","","",""
"","","","","","image-keyboard-response","135","2.0.0","159038","p27z2chwkn6","tardigrade666","null","stimuli/coast_29.jpg","null","coast","I","non-repeat","null","110","stimuli/coast_29.jpg","","","","",""
"","","","","","image-keyboard-response","136","2.0.0","160040","p27z2chwkn6","tardigrade666","null","stimuli/field_12.jpg","null","field","J","non-repeat","null","111","stimuli/field_12.jpg","","","","",""
"","","","","","image-keyboard-response","137","2.0.0","161043","p27z2chwkn6","tardigrade666","null","stimuli/woods_23.jpg","null","woods","K","non-repeat","null","112","stimuli/woods_23.jpg","","","","",""
"","","","","","image-keyboard-response","138","2.0.0","162046","p27z2chwkn6","tardigrade666","null","stimuli/stream_16.jpg","null","stream","L","non-repeat","null","113","stimuli/stream_16.jpg","","","","",""
"","","","","","image-keyboard-response","139","2.0.0","163051","p27z2chwkn6","tardigrade666","null","stimuli/desert_37.jpg","null","desert","A","non-repeat","null","114","stimuli/desert_37.jpg","","","","",""
"","","","","","image-keyboard-response","140","2.0.0","164056","p27z2chwkn6","tardigrade666","null","stimuli/kitchen_63.jpg","null","kitchen","B","non-repeat","null","115","stimuli/kitchen_63.jpg","","","","",""
"","","","","","image-keyboard-response","141","2.0.0","165061","p27z2chwkn6","tardigrade666","null","stimuli/street_51.jpg","null","street","C","non-repeat","null","116","stimuli/street_51.jpg","","","","",""
"","","","","","image-keyboard-response","142","2.0.0","166065","p27z2chwkn6","tardigrade666","null","stimuli/field_12.jpg","null","field","J","non-repeat","null","117","stimuli/field_12.jpg","","","","",""
"","","","","","image-keyboard-response","143","2.0.0","167070","p27z2chwkn6","tardigrade666","623","stimuli/field_12.jpg"," ","field","J","repeat"," ","117","","","","","",""
"","","","","","image-keyboard-response","144","2.0.0","168076","p27z2chwkn6","tardigrade666","null","stimuli/woods_23.jpg","null","woods","K","non-repeat","null","118","stimuli/woods_23.jpg","","","","",""
"","","","","","image-keyboard-response","145","2.0.0","169080","p27z2chwkn6","tardigrade666","null","stimuli/stream_16.jpg","null","stream","L","non-repeat","null","119","stimuli/stream_16.jpg","","","","",""
"","","","","","image-keyboard-response","146","2.0.0","170085","p27z2chwkn6","tardigrade666","null","stimuli/desert_37.jpg","null","desert","A","non-repeat","null","120","stimuli/desert_37.jpg","","","","",""
"","","","","","image-keyboard-response","147","2.0.0","171091","p27z2chwkn6","tardigrade666","null","stimuli/kitchen_63.jpg","null","kitchen","B","non-repeat","null","121","stimuli/kitchen_63.jpg","","","","",""
"","","","","","image-keyboard-response","148","2.0.0","172096","p27z2chwkn6","tardigrade666","null","stimuli/street_51.jpg","null","street","C","non-repeat","null","122","stimuli/street_51.jpg","","","","",""
"","","","","","image-keyboard-response","149","2.0.0","173101","p27z2chwkn6","tardigrade666","null","stimuli/field_12.jpg","null","field","J","non-repeat","null","123","stimuli/field_12.jpg","","","","",""
"","","","","","image-keyboard-response","150","2.0.0","174106","p27z2chwkn6","tardigrade666","null","stimuli/woods_23.jpg","null","woods","K","non-repeat","null","124","stimuli/woods_23.jpg","","","","",""
"","","","","","image-keyboard-response","151","2.0.0","175111","p27z2chwkn6","tardigrade666","null","stimuli/stream_16.jpg","null","stream","L","non-repeat","null","125","stimuli/stream_16.jpg","","","","",""
"","","","","","image-keyboard-response","152","2.0.0","176116","p27z2chwkn6","tardigrade666","534","stimuli/stream_16.jpg"," ","stream","L","repeat"," ","125","","","","","",""
"","","","","","image-keyboard-response","153","2.0.0","177120","p27z2chwkn6","tardigrade666","null","stimuli/bridge_21.jpg","null","bridge","G","non-repeat","null","126","stimuli/bridge_21.jpg","","","","",""
"","","","","","image-keyboard-response","154","2.0.0","178125","p27z2chwkn6","tardigrade666","null","stimuli/gym_10.jpg","null","gym","H","non-repeat","null","127","stimuli/gym_10.jpg","","","","",""
"","","","","","image-keyboard-response","155","2.0.0","179128","p27z2chwkn6","tardigrade666","null","stimuli/coast_29.jpg","null","coast","I","non-repeat","null","128","stimuli/coast_29.jpg","","","","",""
"","","","","","image-keyboard-response","156","2.0.0","180133","p27z2chwkn6","tardigrade666","505","stimuli/coast_29.jpg"," ","coast","I","repeat"," ","128","","","","","",""
"","","","","","image-keyboard-response","157","2.0.0","181136","p27z2chwkn6","tardigrade666","null","stimuli/field_12.jpg","null","field","J","non-repeat","null","129","stimuli/field_12.jpg","","","","",""
"","","","","","image-keyboard-response","158","2.0.0","182141","p27z2chwkn6","tardigrade666","null","stimuli/woods_23.jpg","null","woods","K","non-repeat","null","130","stimuli/woods_23.jpg","","","","",""
"","","","","","image-keyboard-response","159","2.0.0","183146","p27z2chwkn6","tardigrade666","null","stimuli/stream_16.jpg","null","stream","L","non-repeat","null","131","stimuli/stream_16.jpg","","","","",""
"","","","","","image-keyboard-response","160","2.0.0","184151","p27z2chwkn6","tardigrade666","null","stimuli/bridge_21.jpg","null","bridge","G","non-repeat","null","132","stimuli/bridge_21.jpg","","","","",""
"","","","","","image-keyboard-response","161","2.0.0","185156","p27z2chwkn6","tardigrade666","null","stimuli/gym_10.jpg","null","gym","H","non-repeat","null","133","stimuli/gym_10.jpg","","","","",""
"","","","","","image-keyboard-response","162","2.0.0","186162","p27z2chwkn6","tardigrade666","null","stimuli/coast_29.jpg","null","coast","I","non-repeat","null","134","stimuli/coast_29.jpg","","","","",""
"","","","","","image-keyboard-response","163","2.0.0","187167","p27z2chwkn6","tardigrade666","null","stimuli/field_12.jpg","null","field","J","non-repeat","null","135","stimuli/field_12.jpg","","","","",""
"","","","","","image-keyboard-response","164","2.0.0","188172","p27z2chwkn6","tardigrade666","null","stimuli/woods_23.jpg","null","woods","K","non-repeat","null","136","stimuli/woods_23.jpg","","","","",""
"","","","","","image-keyboard-response","165","2.0.0","189177","p27z2chwkn6","tardigrade666","null","stimuli/stream_16.jpg","null","stream","L","non-repeat","null","137","stimuli/stream_16.jpg","","","","",""
"","","","","","image-keyboard-response","166","2.0.0","190180","p27z2chwkn6","tardigrade666","null","stimuli/bar_63.jpg","null","bar","D","non-repeat","null","138","stimuli/bar_63.jpg","","","","",""
"","","","","","image-keyboard-response","167","2.0.0","191185","p27z2chwkn6","tardigrade666","484","stimuli/bar_63.jpg"," ","bar","D","repeat"," ","138","","","","","",""
"","","","","","image-keyboard-response","168","2.0.0","192190","p27z2chwkn6","tardigrade666","null","stimuli/bathroom_50.jpg","null","bathroom","E","non-repeat","null","139","stimuli/bathroom_50.jpg","","","","",""
"","","","","","image-keyboard-response","169","2.0.0","193195","p27z2chwkn6","tardigrade666","null","stimuli/playground_60.jpg","null","playground","F","non-repeat","null","140","stimuli/playground_60.jpg","","","","",""
"","","","","","image-keyboard-response","170","2.0.0","194201","p27z2chwkn6","tardigrade666","null","stimuli/field_12.jpg","null","field","J","non-repeat","null","141","stimuli/field_12.jpg","","","","",""
"","","","","","image-keyboard-response","171","2.0.0","195206","p27z2chwkn6","tardigrade666","null","stimuli/woods_23.jpg","null","woods","K","non-repeat","null","142","stimuli/woods_23.jpg","","","","",""
"","","","","","image-keyboard-response","172","2.0.0","196211","p27z2chwkn6","tardigrade666","null","stimuli/stream_16.jpg","null","stream","L","non-repeat","null","143","stimuli/stream_16.jpg","","","","",""
"","","","","","image-keyboard-response","173","2.0.0","197216","p27z2chwkn6","tardigrade666","574","stimuli/stream_16.jpg"," ","stream","L","repeat"," ","143","","","","","",""
"","","","","","image-keyboard-response","174","2.0.0","198222","p27z2chwkn6","tardigrade666","null","stimuli/bridge_21.jpg","null","bridge","G","non-repeat","null","144","stimuli/bridge_21.jpg","","","","",""
"","","","","","image-keyboard-response","175","2.0.0","199227","p27z2chwkn6","tardigrade666","null","stimuli/gym_10.jpg","null","gym","H","non-repeat","null","145","stimuli/gym_10.jpg","","","","",""
"","","","","","image-keyboard-response","176","2.0.0","200232","p27z2chwkn6","tardigrade666","null","stimuli/coast_29.jpg","null","coast","I","non-repeat","null","146","stimuli/coast_29.jpg","","","","",""
"","","","","","image-keyboard-response","177","2.0.0","201237","p27z2chwkn6","tardigrade666","573","stimuli/coast_29.jpg"," ","coast","I","repeat"," ","146","","","","","",""
"","","","","","image-keyboard-response","178","2.0.0","202241","p27z2chwkn6","tardigrade666","null","stimuli/field_12.jpg","null","field","J","non-repeat","null","147","stimuli/field_12.jpg","","","","",""
"","","","","","image-keyboard-response","179","2.0.0","203246","p27z2chwkn6","tardigrade666","null","stimuli/woods_23.jpg","null","woods","K","non-repeat","null","148","stimuli/woods_23.jpg","","","","",""
"","","","","","image-keyboard-response","180","2.0.0","204252","p27z2chwkn6","tardigrade666","null","stimuli/stream_16.jpg","null","stream","L","non-repeat","null","149","stimuli/stream_16.jpg","","","","",""
"","","","","","image-keyboard-response","181","2.0.0","205255","p27z2chwkn6","tardigrade666","null","stimuli/bar_63.jpg","null","bar","D","non-repeat","null","150","stimuli/bar_63.jpg","","","","",""
"","","","","","image-keyboard-response","182","2.0.0","206258","p27z2chwkn6","tardigrade666","null","stimuli/bathroom_50.jpg","null","bathroom","E","non-repeat","null","151","stimuli/bathroom_50.jpg","","","","",""
"","","","","","image-keyboard-response","183","2.0.0","207263","p27z2chwkn6","tardigrade666","null","stimuli/playground_60.jpg","null","playground","F","non-repeat","null","152","stimuli/playground_60.jpg","","","","",""
"","","","","","image-keyboard-response","184","2.0.0","208268","p27z2chwkn6","tardigrade666","null","stimuli/bridge_21.jpg","null","bridge","G","non-repeat","null","153","stimuli/bridge_21.jpg","","","","",""
"","","","","","image-keyboard-response","185","2.0.0","209273","p27z2chwkn6","tardigrade666","null","stimuli/gym_10.jpg","null","gym","H","non-repeat","null","154","stimuli/gym_10.jpg","","","","",""
"","","","","","image-keyboard-response","186","2.0.0","210278","p27z2chwkn6","tardigrade666","null","stimuli/coast_29.jpg","null","coast","I","non-repeat","null","155","stimuli/coast_29.jpg","","","","",""
"","","","","","image-keyboard-response","187","2.0.0","211283","p27z2chwkn6","tardigrade666","461","stimuli/coast_29.jpg"," ","coast","I","repeat"," ","155","","","","","",""
"","","","","","image-keyboard-response","188","2.0.0","212288","p27z2chwkn6","tardigrade666","null","stimuli/desert_37.jpg","null","desert","A","non-repeat","null","156","stimuli/desert_37.jpg","","","","",""
"","","","","","image-keyboard-response","189","2.0.0","213292","p27z2chwkn6","tardigrade666","551","stimuli/desert_37.jpg"," ","desert","A","repeat"," ","156","","","","","",""
"","","","","","image-keyboard-response","190","2.0.0","214297","p27z2chwkn6","tardigrade666","null","stimuli/kitchen_63.jpg","null","kitchen","B","non-repeat","null","157","stimuli/kitchen_63.jpg","","","","",""
"","","","","","image-keyboard-response","191","2.0.0","215301","p27z2chwkn6","tardigrade666","null","stimuli/street_51.jpg","null","street","C","non-repeat","null","158","stimuli/street_51.jpg","","","","",""
"","","","","","image-keyboard-response","192","2.0.0","216306","p27z2chwkn6","tardigrade666","null","stimuli/bridge_21.jpg","null","bridge","G","non-repeat","null","159","stimuli/bridge_21.jpg","","","","",""
"","","","","","image-keyboard-response","193","2.0.0","217311","p27z2chwkn6","tardigrade666","null","stimuli/gym_10.jpg","null","gym","H","non-repeat","null","160","stimuli/gym_10.jpg","","","","",""
"","","","","","image-keyboard-response","194","2.0.0","218316","p27z2chwkn6","tardigrade666","null","stimuli/coast_29.jpg","null","coast","I","non-repeat","null","161","stimuli/coast_29.jpg","","","","",""
"","","","","","image-keyboard-response","195","2.0.0","219320","p27z2chwkn6","tardigrade666","null","stimuli/field_12.jpg","null","field","J","non-repeat","null","162","stimuli/field_12.jpg","","","","",""
"","","","","","image-keyboard-response","196","2.0.0","220322","p27z2chwkn6","tardigrade666","null","stimuli/woods_23.jpg","null","woods","K","non-repeat","null","163","stimuli/woods_23.jpg","","","","",""
"","","","","","image-keyboard-response","197","2.0.0","221324","p27z2chwkn6","tardigrade666","null","stimuli/stream_16.jpg","null","stream","L","non-repeat","null","164","stimuli/stream_16.jpg","","","","",""
"","","","","","image-keyboard-response","198","2.0.0","222328","p27z2chwkn6","tardigrade666","null","stimuli/bridge_21.jpg","null","bridge","G","non-repeat","null","165","stimuli/bridge_21.jpg","","","","",""
"","","","","","image-keyboard-response","199","2.0.0","223332","p27z2chwkn6","tardigrade666","510","stimuli/bridge_21.jpg"," ","bridge","G","repeat"," ","165","","","","","",""
"","","","","","image-keyboard-response","200","2.0.0","224337","p27z2chwkn6","tardigrade666","null","stimuli/gym_10.jpg","null","gym","H","non-repeat","null","166","stimuli/gym_10.jpg","","","","",""
"","","","","","image-keyboard-response","201","2.0.0","225341","p27z2chwkn6","tardigrade666","null","stimuli/coast_29.jpg","null","coast","I","non-repeat","null","167","stimuli/coast_29.jpg","","","","",""
"","","","","","image-keyboard-response","202","2.0.0","226346","p27z2chwkn6","tardigrade666","750","stimuli/coast_29.jpg"," ","coast","I","repeat"," ","167","","","","","",""
"","","","","","image-keyboard-response","203","2.0.0","227351","p27z2chwkn6","tardigrade666","null","stimuli/bar_63.jpg","null","bar","D","non-repeat","null","168","stimuli/bar_63.jpg","","","","",""
"","","","","","image-keyboard-response","204","2.0.0","228356","p27z2chwkn6","tardigrade666","null","stimuli/bathroom_50.jpg","null","bathroom","E","non-repeat","null","169","stimuli/bathroom_50.jpg","","","","",""
"","","","","","image-keyboard-response","205","2.0.0","229361","p27z2chwkn6","tardigrade666","null","stimuli/playground_60.jpg","null","playground","F","non-repeat","null","170","stimuli/playground_60.jpg","","","","",""
"","","","","","image-keyboard-response","206","2.0.0","230366","p27z2chwkn6","tardigrade666","null","stimuli/field_12.jpg","null","field","J","non-repeat","null","171","stimuli/field_12.jpg","","","","",""
"","","","","","image-keyboard-response","207","2.0.0","231371","p27z2chwkn6","tardigrade666","null","stimuli/woods_23.jpg","null","woods","K","non-repeat","null","172","stimuli/woods_23.jpg","","","","",""
"","","","","","image-keyboard-response","208","2.0.0","232375","p27z2chwkn6","tardigrade666","null","stimuli/stream_16.jpg","null","stream","L","non-repeat","null","173","stimuli/stream_16.jpg","","","","",""
"","","","","","image-keyboard-response","209","2.0.0","233379","p27z2chwkn6","tardigrade666","null","stimuli/bridge_21.jpg","null","bridge","G","non-repeat","null","174","stimuli/bridge_21.jpg","","","","",""
"","","","","","image-keyboard-response","210","2.0.0","234384","p27z2chwkn6","tardigrade666","null","stimuli/gym_10.jpg","null","gym","H","non-repeat","null","175","stimuli/gym_10.jpg","","","","",""
"","","","","","image-keyboard-response","211","2.0.0","235389","p27z2chwkn6","tardigrade666","null","stimuli/coast_29.jpg","null","coast","I","non-repeat","null","176","stimuli/coast_29.jpg","","","","",""
"","","","","","image-keyboard-response","212","2.0.0","236394","p27z2chwkn6","tardigrade666","null","stimuli/field_12.jpg","null","field","J","non-repeat","null","177","stimuli/field_12.jpg","","","","",""
"","","","","","image-keyboard-response","213","2.0.0","237399","p27z2chwkn6","tardigrade666","null","stimuli/woods_23.jpg","null","woods","K","non-repeat","null","178","stimuli/woods_23.jpg","","","","",""
"","","","","","image-keyboard-response","214","2.0.0","238404","p27z2chwkn6","tardigrade666","null","stimuli/stream_16.jpg","null","stream","L","non-repeat","null","179","stimuli/stream_16.jpg","","","","",""
"","","","","","image-keyboard-response","215","2.0.0","239408","p27z2chwkn6","tardigrade666","null","stimuli/bar_63.jpg","null","bar","D","non-repeat","null","180","stimuli/bar_63.jpg","","","","",""
"","","","","","image-keyboard-response","216","2.0.0","240413","p27z2chwkn6","tardigrade666","482","stimuli/bar_63.jpg"," ","bar","D","repeat"," ","180","","","","","",""
"","","","","","image-keyboard-response","217","2.0.0","241419","p27z2chwkn6","tardigrade666","null","stimuli/bathroom_50.jpg","null","bathroom","E","non-repeat","null","181","stimuli/bathroom_50.jpg","","","","",""
"","","","","","image-keyboard-response","218","2.0.0","242424","p27z2chwkn6","tardigrade666","null","stimuli/playground_60.jpg","null","playground","F","non-repeat","null","182","stimuli/playground_60.jpg","","","","",""
"","","","","","image-keyboard-response","219","2.0.0","243430","p27z2chwkn6","tardigrade666","null","stimuli/bridge_21.jpg","null","bridge","G","non-repeat","null","183","stimuli/bridge_21.jpg","","","","",""
"","","","","","image-keyboard-response","220","2.0.0","244435","p27z2chwkn6","tardigrade666","null","stimuli/gym_10.jpg","null","gym","H","non-repeat","null","184","stimuli/gym_10.jpg","","","","",""
"","","","","","image-keyboard-response","221","2.0.0","245440","p27z2chwkn6","tardigrade666","null","stimuli/coast_29.jpg","null","coast","I","non-repeat","null","185","stimuli/coast_29.jpg","","","","",""
"","","","","","image-keyboard-response","222","2.0.0","246446","p27z2chwkn6","tardigrade666","null","stimuli/desert_37.jpg","null","desert","A","non-repeat","null","186","stimuli/desert_37.jpg","","","","",""
"","","","","","image-keyboard-response","223","2.0.0","247451","p27z2chwkn6","tardigrade666","null","stimuli/kitchen_63.jpg","null","kitchen","B","non-repeat","null","187","stimuli/kitchen_63.jpg","","","","",""
"","","","","","image-keyboard-response","224","2.0.0","248455","p27z2chwkn6","tardigrade666","null","stimuli/street_51.jpg","null","street","C","non-repeat","null","188","stimuli/street_51.jpg","","","","",""
"","","","","","image-keyboard-response","225","2.0.0","249458","p27z2chwkn6","tardigrade666","null","stimuli/bar_63.jpg","null","bar","D","non-repeat","null","189","stimuli/bar_63.jpg","","","","",""
"","","","","","image-keyboard-response","226","2.0.0","250461","p27z2chwkn6","tardigrade666","null","stimuli/bathroom_50.jpg","null","bathroom","E","non-repeat","null","190","stimuli/bathroom_50.jpg","","","","",""
"","","","","","image-keyboard-response","227","2.0.0","251466","p27z2chwkn6","tardigrade666","null","stimuli/playground_60.jpg","null","playground","F","non-repeat","null","191","stimuli/playground_60.jpg","","","","",""
"","","","","","image-keyboard-response","228","2.0.0","252470","p27z2chwkn6","tardigrade666","null","stimuli/bridge_21.jpg","null","bridge","G","non-repeat","null","192","stimuli/bridge_21.jpg","","","","",""
"","","","","","image-keyboard-response","229","2.0.0","253475","p27z2chwkn6","tardigrade666","null","stimuli/gym_10.jpg","null","gym","H","non-repeat","null","193","stimuli/gym_10.jpg","","","","",""
"","","","","","image-keyboard-response","230","2.0.0","254480","p27z2chwkn6","tardigrade666","null","stimuli/coast_29.jpg","null","coast","I","non-repeat","null","194","stimuli/coast_29.jpg","","","","",""
"","","","","","image-keyboard-response","231","2.0.0","255484","p27z2chwkn6","tardigrade666","null","stimuli/bar_63.jpg","null","bar","D","non-repeat","null","195","stimuli/bar_63.jpg","","","","",""
"","","","","","image-keyboard-response","232","2.0.0","256489","p27z2chwkn6","tardigrade666","null","stimuli/bathroom_50.jpg","null","bathroom","E","non-repeat","null","196","stimuli/bathroom_50.jpg","","","","",""
"","","","","","image-keyboard-response","233","2.0.0","257494","p27z2chwkn6","tardigrade666","null","stimuli/playground_60.jpg","null","playground","F","non-repeat","null","197","stimuli/playground_60.jpg","","","","",""
"","","","","","image-keyboard-response","234","2.0.0","258499","p27z2chwkn6","tardigrade666","null","stimuli/field_12.jpg","null","field","J","non-repeat","null","198","stimuli/field_12.jpg","","","","",""
"","","","","","image-keyboard-response","235","2.0.0","259504","p27z2chwkn6","tardigrade666","null","stimuli/woods_23.jpg","null","woods","K","non-repeat","null","199","stimuli/woods_23.jpg","","","","",""
"","","","","","image-keyboard-response","236","2.0.0","260508","p27z2chwkn6","tardigrade666","null","stimuli/stream_16.jpg","null","stream","L","non-repeat","null","200","stimuli/stream_16.jpg","","","","",""
"","","","","","image-keyboard-response","237","2.0.0","261514","p27z2chwkn6","tardigrade666","null","stimuli/bar_63.jpg","null","bar","D","non-repeat","null","201","stimuli/bar_63.jpg","","","","",""
"","","","","","image-keyboard-response","238","2.0.0","262518","p27z2chwkn6","tardigrade666","null","stimuli/bathroom_50.jpg","null","bathroom","E","non-repeat","null","202","stimuli/bathroom_50.jpg","","","","",""
"","","","","","image-keyboard-response","239","2.0.0","263523","p27z2chwkn6","tardigrade666","null","stimuli/playground_60.jpg","null","playground","F","non-repeat","null","203","stimuli/playground_60.jpg","","","","",""
"","","","","","image-keyboard-response","240","2.0.0","264528","p27z2chwkn6","tardigrade666","null","stimuli/field_12.jpg","null","field","J","non-repeat","null","204","stimuli/field_12.jpg","","","","",""
"","","","","","image-keyboard-response","241","2.0.0","265533","p27z2chwkn6","tardigrade666","620","stimuli/field_12.jpg"," ","field","J","repeat"," ","204","","","","","",""
"","","","","","image-keyboard-response","242","2.0.0","266538","p27z2chwkn6","tardigrade666","null","stimuli/woods_23.jpg","null","woods","K","non-repeat","null","205","stimuli/woods_23.jpg","","","","",""
"","","","","","image-keyboard-response","243","2.0.0","267542","p27z2chwkn6","tardigrade666","null","stimuli/stream_16.jpg","null","stream","L","non-repeat","null","206","stimuli/stream_16.jpg","","","","",""
"","","","","","image-keyboard-response","244","2.0.0","268548","p27z2chwkn6","tardigrade666","null","stimuli/desert_37.jpg","null","desert","A","non-repeat","null","207","stimuli/desert_37.jpg","","","","",""
"","","","","","image-keyboard-response","245","2.0.0","269553","p27z2chwkn6","tardigrade666","null","stimuli/kitchen_63.jpg","null","kitchen","B","non-repeat","null","208","stimuli/kitchen_63.jpg","","","","",""
"","","","","","image-keyboard-response","246","2.0.0","270558","p27z2chwkn6","tardigrade666","null","stimuli/street_51.jpg","null","street","C","non-repeat","null","209","stimuli/street_51.jpg","","","","",""
"","","","","","image-keyboard-response","247","2.0.0","271563","p27z2chwkn6","tardigrade666","null","stimuli/bar_63.jpg","null","bar","D","non-repeat","null","210","stimuli/bar_63.jpg","","","","",""
"","","","","","image-keyboard-response","248","2.0.0","272568","p27z2chwkn6","tardigrade666","null","stimuli/bathroom_50.jpg","null","bathroom","E","non-repeat","null","211","stimuli/bathroom_50.jpg","","","","",""
"","","","","","image-keyboard-response","249","2.0.0","273572","p27z2chwkn6","tardigrade666","null","stimuli/playground_60.jpg","null","playground","F","non-repeat","null","212","stimuli/playground_60.jpg","","","","",""
"","","","","","image-keyboard-response","250","2.0.0","274592","p27z2chwkn6","tardigrade666","null","stimuli/bridge_21.jpg","null","bridge","G","non-repeat","null","213","stimuli/bridge_21.jpg","","","","",""
"","","","","","image-keyboard-response","251","2.0.0","275597","p27z2chwkn6","tardigrade666","null","stimuli/gym_10.jpg","null","gym","H","non-repeat","null","214","stimuli/gym_10.jpg","","","","",""
"","","","","","image-keyboard-response","252","2.0.0","276602","p27z2chwkn6","tardigrade666","null","stimuli/coast_29.jpg","null","coast","I","non-repeat","null","215","stimuli/coast_29.jpg","","","","",""
"","","","","","image-keyboard-response","253","2.0.0","277606","p27z2chwkn6","tardigrade666","null","stimuli/desert_37.jpg","null","desert","A","non-repeat","null","216","stimuli/desert_37.jpg","","","","",""
"","","","","","image-keyboard-response","254","2.0.0","278610","p27z2chwkn6","tardigrade666","null","stimuli/desert_37.jpg","null","desert","A","repeat"," ","216","","","","","",""
"","","","","","image-keyboard-response","255","2.0.0","279613","p27z2chwkn6","tardigrade666","147","stimuli/kitchen_63.jpg"," ","kitchen","B","non-repeat","null","217","stimuli/kitchen_63.jpg","","","","",""
"","","","","","image-keyboard-response","256","2.0.0","280617","p27z2chwkn6","tardigrade666","null","stimuli/street_51.jpg","null","street","C","non-repeat","null","218","stimuli/street_51.jpg","","","","",""
"","","","","","image-keyboard-response","257","2.0.0","281620","p27z2chwkn6","tardigrade666","670","stimuli/street_51.jpg"," ","street","C","repeat"," ","218","","","","","",""
"","","","","","image-keyboard-response","258","2.0.0","282624","p27z2chwkn6","tardigrade666","null","stimuli/bridge_21.jpg","null","bridge","G","non-repeat","null","219","stimuli/bridge_21.jpg","","","","",""
"","","","","","image-keyboard-response","259","2.0.0","283629","p27z2chwkn6","tardigrade666","null","stimuli/gym_10.jpg","null","gym","H","non-repeat","null","220","stimuli/gym_10.jpg","","","","",""
"","","","","","image-keyboard-response","260","2.0.0","284635","p27z2chwkn6","tardigrade666","null","stimuli/coast_29.jpg","null","coast","I","non-repeat","null","221","stimuli/coast_29.jpg","","","","",""
"","","","","","image-keyboard-response","261","2.0.0","285640","p27z2chwkn6","tardigrade666","693","stimuli/coast_29.jpg"," ","coast","I","repeat"," ","221","","","","","",""
"","","","","","image-keyboard-response","262","2.0.0","286645","p27z2chwkn6","tardigrade666","null","stimuli/bar_63.jpg","null","bar","D","non-repeat","null","222","stimuli/bar_63.jpg","","","","",""
"","","","","","image-keyboard-response","263","2.0.0","287650","p27z2chwkn6","tardigrade666","null","stimuli/bathroom_50.jpg","null","bathroom","E","non-repeat","null","223","stimuli/bathroom_50.jpg","","","","",""
"","","","","","image-keyboard-response","264","2.0.0","288654","p27z2chwkn6","tardigrade666","null","stimuli/playground_60.jpg","null","playground","F","non-repeat","null","224","stimuli/playground_60.jpg","","","","",""
"","","","","","image-keyboard-response","265","2.0.0","289659","p27z2chwkn6","tardigrade666","null","stimuli/bridge_21.jpg","null","bridge","G","non-repeat","null","225","stimuli/bridge_21.jpg","","","","",""
"","","","","","image-keyboard-response","266","2.0.0","290664","p27z2chwkn6","tardigrade666","null","stimuli/gym_10.jpg","null","gym","H","non-repeat","null","226","stimuli/gym_10.jpg","","","","",""
"","","","","","image-keyboard-response","267","2.0.0","291668","p27z2chwkn6","tardigrade666","null","stimuli/coast_29.jpg","null","coast","I","non-repeat","null","227","stimuli/coast_29.jpg","","","","",""
"","","","","","image-keyboard-response","268","2.0.0","292674","p27z2chwkn6","tardigrade666","null","stimuli/desert_37.jpg","null","desert","A","non-repeat","null","228","stimuli/desert_37.jpg","","","","",""
"","","","","","image-keyboard-response","269","2.0.0","293678","p27z2chwkn6","tardigrade666","571","stimuli/desert_37.jpg"," ","desert","A","repeat"," ","228","","","","","",""
"","","","","","image-keyboard-response","270","2.0.0","294682","p27z2chwkn6","tardigrade666","null","stimuli/kitchen_63.jpg","null","kitchen","B","non-repeat","null","229","stimuli/kitchen_63.jpg","","","","",""
"","","","","","image-keyboard-response","271","2.0.0","295686","p27z2chwkn6","tardigrade666","null","stimuli/street_51.jpg","null","street","C","non-repeat","null","230","stimuli/street_51.jpg","","","","",""
"","","","","","image-keyboard-response","272","2.0.0","296691","p27z2chwkn6","tardigrade666","null","stimuli/bar_63.jpg","null","bar","D","non-repeat","null","231","stimuli/bar_63.jpg","","","","",""
"","","","","","image-keyboard-response","273","2.0.0","297696","p27z2chwkn6","tardigrade666","null","stimuli/bathroom_50.jpg","null","bathroom","E","non-repeat","null","232","stimuli/bathroom_50.jpg","","","","",""
"","","","","","image-keyboard-response","274","2.0.0","298701","p27z2chwkn6","tardigrade666","null","stimuli/playground_60.jpg","null","playground","F","non-repeat","null","233","stimuli/playground_60.jpg","","","","",""
"","","","","","image-keyboard-response","275","2.0.0","299704","p27z2chwkn6","tardigrade666","null","stimuli/bridge_21.jpg","null","bridge","G","non-repeat","null","234","stimuli/bridge_21.jpg","","","","",""
"","","","","","image-keyboard-response","276","2.0.0","300709","p27z2chwkn6","tardigrade666","null","stimuli/gym_10.jpg","null","gym","H","non-repeat","null","235","stimuli/gym_10.jpg","","","","",""
"","","","","","image-keyboard-response","277","2.0.0","301714","p27z2chwkn6","tardigrade666","null","stimuli/coast_29.jpg","null","coast","I","non-repeat","null","236","stimuli/coast_29.jpg","","","","",""
"","","","","","image-keyboard-response","278","2.0.0","302719","p27z2chwkn6","tardigrade666","746","stimuli/coast_29.jpg"," ","coast","I","repeat"," ","236","","","","","",""
"","","","","","image-keyboard-response","279","2.0.0","303725","p27z2chwkn6","tardigrade666","null","stimuli/field_12.jpg","null","field","J","non-repeat","null","237","stimuli/field_12.jpg","","","","",""
"","","","","","image-keyboard-response","280","2.0.0","304729","p27z2chwkn6","tardigrade666","null","stimuli/woods_23.jpg","null","woods","K","non-repeat","null","238","stimuli/woods_23.jpg","","","","",""
"","","","","","image-keyboard-response","281","2.0.0","305734","p27z2chwkn6","tardigrade666","null","stimuli/stream_16.jpg","null","stream","L","non-repeat","null","239","stimuli/stream_16.jpg","","","","",""
"","","","","","image-keyboard-response","282","2.0.0","306739","p27z2chwkn6","tardigrade666","null","stimuli/desert_37.jpg","null","desert","A","non-repeat","null","240","stimuli/desert_37.jpg","","","","",""
"","","","","","image-keyboard-response","283","2.0.0","307744","p27z2chwkn6","tardigrade666","null","stimuli/kitchen_63.jpg","null","kitchen","B","non-repeat","null","241","stimuli/kitchen_63.jpg","","","","",""
"","","","","","image-keyboard-response","284","2.0.0","308749","p27z2chwkn6","tardigrade666","null","stimuli/street_51.jpg","null","street","C","non-repeat","null","242","stimuli/street_51.jpg","","","","",""
"","","","","","image-keyboard-response","285","2.0.0","309752","p27z2chwkn6","tardigrade666","null","stimuli/field_12.jpg","null","field","J","non-repeat","null","243","stimuli/field_12.jpg","","","","",""
"","","","","","image-keyboard-response","286","2.0.0","310756","p27z2chwkn6","tardigrade666","null","stimuli/woods_23.jpg","null","woods","K","non-repeat","null","244","stimuli/woods_23.jpg","","","","",""
"","","","","","image-keyboard-response","287","2.0.0","311759","p27z2chwkn6","tardigrade666","null","stimuli/stream_16.jpg","null","stream","L","non-repeat","null","245","stimuli/stream_16.jpg","","","","",""
"","","","","","image-keyboard-response","288","2.0.0","312763","p27z2chwkn6","tardigrade666","null","stimuli/bridge_21.jpg","null","bridge","G","non-repeat","null","246","stimuli/bridge_21.jpg","","","","",""
"","","","","","image-keyboard-response","289","2.0.0","313768","p27z2chwkn6","tardigrade666","null","stimuli/gym_10.jpg","null","gym","H","non-repeat","null","247","stimuli/gym_10.jpg","","","","",""
"","","","","","image-keyboard-response","290","2.0.0","314774","p27z2chwkn6","tardigrade666","null","stimuli/coast_29.jpg","null","coast","I","non-repeat","null","248","stimuli/coast_29.jpg","","","","",""
"","","","","","image-keyboard-response","291","2.0.0","315778","p27z2chwkn6","tardigrade666","null","stimuli/desert_37.jpg","null","desert","A","non-repeat","null","249","stimuli/desert_37.jpg","","","","",""
"","","","","","image-keyboard-response","292","2.0.0","316784","p27z2chwkn6","tardigrade666","null","stimuli/kitchen_63.jpg","null","kitchen","B","non-repeat","null","250","stimuli/kitchen_63.jpg","","","","",""
"","","","","","image-keyboard-response","293","2.0.0","317789","p27z2chwkn6","tardigrade666","null","stimuli/street_51.jpg","null","street","C","non-repeat","null","251","stimuli/street_51.jpg","","","","",""
"","","","","","image-keyboard-response","294","2.0.0","318794","p27z2chwkn6","tardigrade666","null","stimuli/bar_63.jpg","null","bar","D","non-repeat","null","252","stimuli/bar_63.jpg","","","","",""
"","","","","","image-keyboard-response","295","2.0.0","319799","p27z2chwkn6","tardigrade666","null","stimuli/bathroom_50.jpg","null","bathroom","E","non-repeat","null","253","stimuli/bathroom_50.jpg","","","","",""
"","","","","","image-keyboard-response","296","2.0.0","320804","p27z2chwkn6","tardigrade666","null","stimuli/playground_60.jpg","null","playground","F","non-repeat","null","254","stimuli/playground_60.jpg","","","","",""
"","","","","","image-keyboard-response","297","2.0.0","321809","p27z2chwkn6","tardigrade666","null","stimuli/desert_37.jpg","null","desert","A","non-repeat","null","255","stimuli/desert_37.jpg","","","","",""
"","","","","","image-keyboard-response","298","2.0.0","322814","p27z2chwkn6","tardigrade666","null","stimuli/kitchen_63.jpg","null","kitchen","B","non-repeat","null","256","stimuli/kitchen_63.jpg","","","","",""
"","","","","","image-keyboard-response","299","2.0.0","323819","p27z2chwkn6","tardigrade666","null","stimuli/street_51.jpg","null","street","C","non-repeat","null","257","stimuli/street_51.jpg","","","","",""
"","","","","","image-keyboard-response","300","2.0.0","324825","p27z2chwkn6","tardigrade666","null","stimuli/bar_63.jpg","null","bar","D","non-repeat","null","258","stimuli/bar_63.jpg","","","","",""
"","","","","","image-keyboard-response","301","2.0.0","325830","p27z2chwkn6","tardigrade666","null","stimuli/bathroom_50.jpg","null","bathroom","E","non-repeat","null","259","stimuli/bathroom_50.jpg","","","","",""
"","","","","","image-keyboard-response","302","2.0.0","326834","p27z2chwkn6","tardigrade666","null","stimuli/playground_60.jpg","null","playground","F","non-repeat","null","260","stimuli/playground_60.jpg","","","","",""
"","","","","","image-keyboard-response","303","2.0.0","327839","p27z2chwkn6","tardigrade666","null","stimuli/bridge_21.jpg","null","bridge","G","non-repeat","null","261","stimuli/bridge_21.jpg","","","","",""
"","","","","","image-keyboard-response","304","2.0.0","328844","p27z2chwkn6","tardigrade666","null","stimuli/gym_10.jpg","null","gym","H","non-repeat","null","262","stimuli/gym_10.jpg","","","","",""
"","","","","","image-keyboard-response","305","2.0.0","329850","p27z2chwkn6","tardigrade666","null","stimuli/coast_29.jpg","null","coast","I","non-repeat","null","263","stimuli/coast_29.jpg","","","","",""
"","","","","","image-keyboard-response","306","2.0.0","330855","p27z2chwkn6","tardigrade666","null","stimuli/field_12.jpg","null","field","J","non-repeat","null","264","stimuli/field_12.jpg","","","","",""
"","","","","","image-keyboard-response","307","2.0.0","331859","p27z2chwkn6","tardigrade666","null","stimuli/woods_23.jpg","null","woods","K","non-repeat","null","265","stimuli/woods_23.jpg","","","","",""
"","","","","","image-keyboard-response","308","2.0.0","332864","p27z2chwkn6","tardigrade666","null","stimuli/stream_16.jpg","null","stream","L","non-repeat","null","266","stimuli/stream_16.jpg","","","","",""
"","","","","","image-keyboard-response","309","2.0.0","333870","p27z2chwkn6","tardigrade666","null","stimuli/bar_63.jpg","null","bar","D","non-repeat","null","267","stimuli/bar_63.jpg","","","","",""
"","","","","","image-keyboard-response","310","2.0.0","334874","p27z2chwkn6","tardigrade666","null","stimuli/bathroom_50.jpg","null","bathroom","E","non-repeat","null","268","stimuli/bathroom_50.jpg","","","","",""
"","","","","","image-keyboard-response","311","2.0.0","335879","p27z2chwkn6","tardigrade666","null","stimuli/playground_60.jpg","null","playground","F","non-repeat","null","269","stimuli/playground_60.jpg","","","","",""
"","","","","","image-keyboard-response","312","2.0.0","336884","p27z2chwkn6","tardigrade666","null","stimuli/bridge_21.jpg","null","bridge","G","non-repeat","null","270","stimuli/bridge_21.jpg","","","","",""
"","","","","","image-keyboard-response","313","2.0.0","337889","p27z2chwkn6","tardigrade666","null","stimuli/gym_10.jpg","null","gym","H","non-repeat","null","271","stimuli/gym_10.jpg","","","","",""
"","","","","","image-keyboard-response","314","2.0.0","338894","p27z2chwkn6","tardigrade666","null","stimuli/coast_29.jpg","null","coast","I","non-repeat","null","272","stimuli/coast_29.jpg","","","","",""
"","","","","","image-keyboard-response","315","2.0.0","339897","p27z2chwkn6","tardigrade666","null","stimuli/bar_63.jpg","null","bar","D","non-repeat","null","273","stimuli/bar_63.jpg","","","","",""
"","","","","","image-keyboard-response","316","2.0.0","340900","p27z2chwkn6","tardigrade666","547","stimuli/bar_63.jpg"," ","bar","D","repeat"," ","273","","","","","",""
"","","","","","image-keyboard-response","317","2.0.0","341903","p27z2chwkn6","tardigrade666","null","stimuli/bathroom_50.jpg","null","bathroom","E","non-repeat","null","274","stimuli/bathroom_50.jpg","","","","",""
"","","","","","image-keyboard-response","318","2.0.0","342909","p27z2chwkn6","tardigrade666","null","stimuli/playground_60.jpg","null","playground","F","non-repeat","null","275","stimuli/playground_60.jpg","","","","",""
"","","","","","image-keyboard-response","319","2.0.0","343914","p27z2chwkn6","tardigrade666","null","stimuli/field_12.jpg","null","field","J","non-repeat","null","276","stimuli/field_12.jpg","","","","",""
"","","","","","image-keyboard-response","320","2.0.0","344919","p27z2chwkn6","tardigrade666","null","stimuli/woods_23.jpg","null","woods","K","non-repeat","null","277","stimuli/woods_23.jpg","","","","",""
"","","","","","image-keyboard-response","321","2.0.0","345924","p27z2chwkn6","tardigrade666","null","stimuli/stream_16.jpg","null","stream","L","non-repeat","null","278","stimuli/stream_16.jpg","","","","",""
"","","","","","image-keyboard-response","322","2.0.0","346928","p27z2chwkn6","tardigrade666","null","stimuli/desert_37.jpg","null","desert","A","non-repeat","null","279","stimuli/desert_37.jpg","","","","",""
"","","","","","image-keyboard-response","323","2.0.0","347934","p27z2chwkn6","tardigrade666","null","stimuli/kitchen_63.jpg","null","kitchen","B","non-repeat","null","280","stimuli/kitchen_63.jpg","","","","",""
"","","","","","image-keyboard-response","324","2.0.0","348939","p27z2chwkn6","tardigrade666","null","stimuli/street_51.jpg","null","street","C","non-repeat","null","281","stimuli/street_51.jpg","","","","",""
"","","","","","image-keyboard-response","325","2.0.0","349944","p27z2chwkn6","tardigrade666","730","stimuli/street_51.jpg"," ","street","C","repeat"," ","281","","","","","",""
"","","","","","image-keyboard-response","326","2.0.0","350948","p27z2chwkn6","tardigrade666","null","stimuli/bar_63.jpg","null","bar","D","non-repeat","null","282","stimuli/bar_63.jpg","","","","",""
"","","","","","image-keyboard-response","327","2.0.0","351953","p27z2chwkn6","tardigrade666","null","stimuli/bathroom_50.jpg","null","bathroom","E","non-repeat","null","283","stimuli/bathroom_50.jpg","","","","",""
"","","","","","image-keyboard-response","328","2.0.0","352958","p27z2chwkn6","tardigrade666","null","stimuli/playground_60.jpg","null","playground","F","non-repeat","null","284","stimuli/playground_60.jpg","","","","",""
"","","","","","image-keyboard-response","329","2.0.0","353963","p27z2chwkn6","tardigrade666","null","stimuli/desert_37.jpg","null","desert","A","non-repeat","null","285","stimuli/desert_37.jpg","","","","",""
"","","","","","image-keyboard-response","330","2.0.0","354968","p27z2chwkn6","tardigrade666","null","stimuli/kitchen_63.jpg","null","kitchen","B","non-repeat","null","286","stimuli/kitchen_63.jpg","","","","",""
"","","","","","image-keyboard-response","331","2.0.0","355973","p27z2chwkn6","tardigrade666","null","stimuli/street_51.jpg","null","street","C","non-repeat","null","287","stimuli/street_51.jpg","","","","",""
"","","","","","image-keyboard-response","332","2.0.0","356977","p27z2chwkn6","tardigrade666","495","stimuli/street_51.jpg"," ","street","C","repeat"," ","287","","","","","",""
"","","","","","image-keyboard-response","333","2.0.0","357982","p27z2chwkn6","tardigrade666","null","stimuli/field_12.jpg","null","field","J","non-repeat","null","288","stimuli/field_12.jpg","","","","",""
"","","","","","image-keyboard-response","334","2.0.0","358987","p27z2chwkn6","tardigrade666","660","stimuli/field_12.jpg"," ","field","J","repeat"," ","288","","","","","",""
"","","","","","image-keyboard-response","335","2.0.0","359992","p27z2chwkn6","tardigrade666","null","stimuli/woods_23.jpg","null","woods","K","non-repeat","null","289","stimuli/woods_23.jpg","","","","",""
"","","","","","image-keyboard-response","336","2.0.0","361011","p27z2chwkn6","tardigrade666","null","stimuli/stream_16.jpg","null","stream","L","non-repeat","null","290","stimuli/stream_16.jpg","","","","",""
"","","","","","image-keyboard-response","337","2.0.0","362015","p27z2chwkn6","tardigrade666","611","stimuli/stream_16.jpg"," ","stream","L","repeat"," ","290","","","","","",""
"","","","","","image-keyboard-response","338","2.0.0","363020","p27z2chwkn6","tardigrade666","null","stimuli/bar_63.jpg","null","bar","D","non-repeat","null","291","stimuli/bar_63.jpg","","","","",""
"","","","","","image-keyboard-response","339","2.0.0","364024","p27z2chwkn6","tardigrade666","null","stimuli/bathroom_50.jpg","null","bathroom","E","non-repeat","null","292","stimuli/bathroom_50.jpg","","","","",""
"","","","","","image-keyboard-response","340","2.0.0","365029","p27z2chwkn6","tardigrade666","null","stimuli/playground_60.jpg","null","playground","F","non-repeat","null","293","stimuli/playground_60.jpg","","","","",""
"","","","","","image-keyboard-response","341","2.0.0","366034","p27z2chwkn6","tardigrade666","620","stimuli/playground_60.jpg"," ","playground","F","repeat"," ","293","","","","","",""
"","","","","","image-keyboard-response","342","2.0.0","367039","p27z2chwkn6","tardigrade666","null","stimuli/field_12.jpg","null","field","J","non-repeat","null","294","stimuli/field_12.jpg","","","","",""
"","","","","","image-keyboard-response","343","2.0.0","368044","p27z2chwkn6","tardigrade666","null","stimuli/woods_23.jpg","null","woods","K","non-repeat","null","295","stimuli/woods_23.jpg","","","","",""
"","","","","","image-keyboard-response","344","2.0.0","369048","p27z2chwkn6","tardigrade666","null","stimuli/stream_16.jpg","null","stream","L","non-repeat","null","296","stimuli/stream_16.jpg","","","","",""
"","","","","","image-keyboard-response","345","2.0.0","370050","p27z2chwkn6","tardigrade666","351","stimuli/stream_16.jpg"," ","stream","L","repeat"," ","296","","","","","",""
"","","","","","image-keyboard-response","346","2.0.0","371055","p27z2chwkn6","tardigrade666","null","stimuli/bar_63.jpg","null","bar","D","non-repeat","null","297","stimuli/bar_63.jpg","","","","",""
"","","","","","image-keyboard-response","347","2.0.0","372059","p27z2chwkn6","tardigrade666","365","stimuli/bathroom_50.jpg"," ","bathroom","E","non-repeat","null","298","stimuli/bathroom_50.jpg","","","","",""
"","","","","","image-keyboard-response","348","2.0.0","373064","p27z2chwkn6","tardigrade666","null","stimuli/playground_60.jpg","null","playground","F","non-repeat","null","299","stimuli/playground_60.jpg","","","","",""
"","","","","","image-keyboard-response","349","2.0.0","374069","p27z2chwkn6","tardigrade666","null","stimuli/bridge_21.jpg","null","bridge","G","non-repeat","null","300","stimuli/bridge_21.jpg","","","","",""
"","","","","","image-keyboard-response","350","2.0.0","375074","p27z2chwkn6","tardigrade666","null","stimuli/gym_10.jpg","null","gym","H","non-repeat","null","301","stimuli/gym_10.jpg","","","","",""
"","","","","","image-keyboard-response","351","2.0.0","376080","p27z2chwkn6","tardigrade666","null","stimuli/coast_29.jpg","null","coast","I","non-repeat","null","302","stimuli/coast_29.jpg","","","","",""
"","","","","","image-keyboard-response","352","2.0.0","377085","p27z2chwkn6","tardigrade666","453","stimuli/coast_29.jpg"," ","coast","I","repeat"," ","302","","","","","",""
"","","","","","image-keyboard-response","353","2.0.0","378090","p27z2chwkn6","tardigrade666","null","stimuli/field_12.jpg","null","field","J","non-repeat","null","303","stimuli/field_12.jpg","","","","",""
"","","","","","image-keyboard-response","354","2.0.0","379096","p27z2chwkn6","tardigrade666","null","stimuli/woods_23.jpg","null","woods","K","non-repeat","null","304","stimuli/woods_23.jpg","","","","",""
"","","","","","image-keyboard-response","355","2.0.0","380100","p27z2chwkn6","tardigrade666","null","stimuli/stream_16.jpg","null","stream","L","non-repeat","null","305","stimuli/stream_16.jpg","","","","",""
"","","","","","image-keyboard-response","356","2.0.0","381105","p27z2chwkn6","tardigrade666","null","stimuli/bridge_21.jpg","null","bridge","G","non-repeat","null","306","stimuli/bridge_21.jpg","","","","",""
"","","","","","image-keyboard-response","357","2.0.0","382111","p27z2chwkn6","tardigrade666","null","stimuli/gym_10.jpg","null","gym","H","non-repeat","null","307","stimuli/gym_10.jpg","","","","",""
"","","","","","image-keyboard-response","358","2.0.0","383115","p27z2chwkn6","tardigrade666","null","stimuli/coast_29.jpg","null","coast","I","non-repeat","null","308","stimuli/coast_29.jpg","","","","",""
"","","","","","image-keyboard-response","359","2.0.0","384121","p27z2chwkn6","tardigrade666","null","stimuli/bar_63.jpg","null","bar","D","non-repeat","null","309","stimuli/bar_63.jpg","","","","",""
"","","","","","image-keyboard-response","360","2.0.0","385126","p27z2chwkn6","tardigrade666","482","stimuli/bar_63.jpg"," ","bar","D","repeat"," ","309","","","","","",""
"","","","","","image-keyboard-response","361","2.0.0","386130","p27z2chwkn6","tardigrade666","null","stimuli/bathroom_50.jpg","null","bathroom","E","non-repeat","null","310","stimuli/bathroom_50.jpg","","","","",""
"","","","","","image-keyboard-response","362","2.0.0","387135","p27z2chwkn6","tardigrade666","null","stimuli/playground_60.jpg","null","playground","F","non-repeat","null","311","stimuli/playground_60.jpg","","","","",""
"","","","","","image-keyboard-response","363","2.0.0","388140","p27z2chwkn6","tardigrade666","null","stimuli/bridge_21.jpg","null","bridge","G","non-repeat","null","312","stimuli/bridge_21.jpg","","","","",""
"","","","","","image-keyboard-response","364","2.0.0","389145","p27z2chwkn6","tardigrade666","null","stimuli/gym_10.jpg","null","gym","H","non-repeat","null","313","stimuli/gym_10.jpg","","","","",""
"","","","","","image-keyboard-response","365","2.0.0","390150","p27z2chwkn6","tardigrade666","null","stimuli/coast_29.jpg","null","coast","I","non-repeat","null","314","stimuli/coast_29.jpg","","","","",""
"","","","","","image-keyboard-response","366","2.0.0","391156","p27z2chwkn6","tardigrade666","781","stimuli/coast_29.jpg"," ","coast","I","repeat"," ","314","","","","","",""
"","","","","","image-keyboard-response","367","2.0.0","392161","p27z2chwkn6","tardigrade666","null","stimuli/bar_63.jpg","null","bar","D","non-repeat","null","315","stimuli/bar_63.jpg","","","","",""
"","","","","","image-keyboard-response","368","2.0.0","393166","p27z2chwkn6","tardigrade666","null","stimuli/bathroom_50.jpg","null","bathroom","E","non-repeat","null","316","stimuli/bathroom_50.jpg","","","","",""
"","","","","","image-keyboard-response","369","2.0.0","394171","p27z2chwkn6","tardigrade666","null","stimuli/playground_60.jpg","null","playground","F","non-repeat","null","317","stimuli/playground_60.jpg","","","","",""
"","","","","","image-keyboard-response","370","2.0.0","395176","p27z2chwkn6","tardigrade666","null","stimuli/bridge_21.jpg","null","bridge","G","non-repeat","null","318","stimuli/bridge_21.jpg","","","","",""
"","","","","","image-keyboard-response","371","2.0.0","396181","p27z2chwkn6","tardigrade666","null","stimuli/gym_10.jpg","null","gym","H","non-repeat","null","319","stimuli/gym_10.jpg","","","","",""
"","","","","","image-keyboard-response","372","2.0.0","397185","p27z2chwkn6","tardigrade666","null","stimuli/coast_29.jpg","null","coast","I","non-repeat","null","320","stimuli/coast_29.jpg","","","","",""
"","","","","","image-keyboard-response","373","2.0.0","398190","p27z2chwkn6","tardigrade666","null","stimuli/bar_63.jpg","null","bar","D","non-repeat","null","321","stimuli/bar_63.jpg","","","","",""
"","","","","","image-keyboard-response","374","2.0.0","399194","p27z2chwkn6","tardigrade666","null","stimuli/bathroom_50.jpg","null","bathroom","E","non-repeat","null","322","stimuli/bathroom_50.jpg","","","","",""
"","","","","","image-keyboard-response","375","2.0.0","400197","p27z2chwkn6","tardigrade666","null","stimuli/playground_60.jpg","null","playground","F","non-repeat","null","323","stimuli/playground_60.jpg","","","","",""
"","","","","","image-keyboard-response","376","2.0.0","401202","p27z2chwkn6","tardigrade666","631","stimuli/playground_60.jpg"," ","playground","F","repeat"," ","323","","","","","",""
"","","","","","image-keyboard-response","377","2.0.0","402207","p27z2chwkn6","tardigrade666","null","stimuli/field_12.jpg","null","field","J","non-repeat","null","324","stimuli/field_12.jpg","","","","",""
"","","","","","image-keyboard-response","378","2.0.0","403211","p27z2chwkn6","tardigrade666","556","stimuli/field_12.jpg"," ","field","J","repeat"," ","324","","","","","",""
"","","","","","image-keyboard-response","379","2.0.0","404216","p27z2chwkn6","tardigrade666","null","stimuli/woods_23.jpg","null","woods","K","non-repeat","null","325","stimuli/woods_23.jpg","","","","",""
"","","","","","image-keyboard-response","380","2.0.0","405220","p27z2chwkn6","tardigrade666","null","stimuli/stream_16.jpg","null","stream","L","non-repeat","null","326","stimuli/stream_16.jpg","","","","",""
"","","","","","image-keyboard-response","381","2.0.0","406225","p27z2chwkn6","tardigrade666","null","stimuli/desert_37.jpg","null","desert","A","non-repeat","null","327","stimuli/desert_37.jpg","","","","",""
"","","","","","image-keyboard-response","382","2.0.0","407230","p27z2chwkn6","tardigrade666","null","stimuli/kitchen_63.jpg","null","kitchen","B","non-repeat","null","328","stimuli/kitchen_63.jpg","","","","",""
"","","","","","image-keyboard-response","383","2.0.0","408234","p27z2chwkn6","tardigrade666","null","stimuli/street_51.jpg","null","street","C","non-repeat","null","329","stimuli/street_51.jpg","","","","",""
"","","","","","image-keyboard-response","384","2.0.0","409238","p27z2chwkn6","tardigrade666","null","stimuli/bridge_21.jpg","null","bridge","G","non-repeat","null","330","stimuli/bridge_21.jpg","","","","",""
"","","","","","image-keyboard-response","385","2.0.0","410243","p27z2chwkn6","tardigrade666","null","stimuli/gym_10.jpg","null","gym","H","non-repeat","null","331","stimuli/gym_10.jpg","","","","",""
"","","","","","image-keyboard-response","386","2.0.0","411247","p27z2chwkn6","tardigrade666","null","stimuli/coast_29.jpg","null","coast","I","non-repeat","null","332","stimuli/coast_29.jpg","","","","",""
"","","","","","image-keyboard-response","387","2.0.0","412251","p27z2chwkn6","tardigrade666","789","stimuli/coast_29.jpg"," ","coast","I","repeat"," ","332","","","","","",""
"","","","","","image-keyboard-response","388","2.0.0","413255","p27z2chwkn6","tardigrade666","null","stimuli/desert_37.jpg","null","desert","A","non-repeat","null","333","stimuli/desert_37.jpg","","","","",""
"","","","","","image-keyboard-response","389","2.0.0","414259","p27z2chwkn6","tardigrade666","null","stimuli/kitchen_63.jpg","null","kitchen","B","non-repeat","null","334","stimuli/kitchen_63.jpg","","","","",""
"","","","","","image-keyboard-response","390","2.0.0","415264","p27z2chwkn6","tardigrade666","null","stimuli/street_51.jpg","null","street","C","non-repeat","null","335","stimuli/street_51.jpg","","","","",""
"","","","","","image-keyboard-response","391","2.0.0","416269","p27z2chwkn6","tardigrade666","null","stimuli/field_12.jpg","null","field","J","non-repeat","null","336","stimuli/field_12.jpg","","","","",""
"","","","","","image-keyboard-response","392","2.0.0","417273","p27z2chwkn6","tardigrade666","null","stimuli/woods_23.jpg","null","woods","K","non-repeat","null","337","stimuli/woods_23.jpg","","","","",""
"","","","","","image-keyboard-response","393","2.0.0","418279","p27z2chwkn6","tardigrade666","null","stimuli/stream_16.jpg","null","stream","L","non-repeat","null","338","stimuli/stream_16.jpg","","","","",""
"","","","","","image-keyboard-response","394","2.0.0","419284","p27z2chwkn6","tardigrade666","null","stimuli/desert_37.jpg","null","desert","A","non-repeat","null","339","stimuli/desert_37.jpg","","","","",""
"","","","","","image-keyboard-response","395","2.0.0","420289","p27z2chwkn6","tardigrade666","null","stimuli/kitchen_63.jpg","null","kitchen","B","non-repeat","null","340","stimuli/kitchen_63.jpg","","","","",""
"","","","","","image-keyboard-response","396","2.0.0","421294","p27z2chwkn6","tardigrade666","null","stimuli/street_51.jpg","null","street","C","non-repeat","null","341","stimuli/street_51.jpg","","","","",""
"","","","","","image-keyboard-response","397","2.0.0","422300","p27z2chwkn6","tardigrade666","null","stimuli/field_12.jpg","null","field","J","non-repeat","null","342","stimuli/field_12.jpg","","","","",""
"","","","","","image-keyboard-response","398","2.0.0","423305","p27z2chwkn6","tardigrade666","577","stimuli/field_12.jpg"," ","field","J","repeat"," ","342","","","","","",""
"","","","","","image-keyboard-response","399","2.0.0","424309","p27z2chwkn6","tardigrade666","null","stimuli/woods_23.jpg","null","woods","K","non-repeat","null","343","stimuli/woods_23.jpg","","","","",""
"","","","","","image-keyboard-response","400","2.0.0","425315","p27z2chwkn6","tardigrade666","null","stimuli/stream_16.jpg","null","stream","L","non-repeat","null","344","stimuli/stream_16.jpg","","","","",""
"","","","","","image-keyboard-response","401","2.0.0","426319","p27z2chwkn6","tardigrade666","null","stimuli/desert_37.jpg","null","desert","A","non-repeat","null","345","stimuli/desert_37.jpg","","","","",""
"","","","","","image-keyboard-response","402","2.0.0","427323","p27z2chwkn6","tardigrade666","null","stimuli/kitchen_63.jpg","null","kitchen","B","non-repeat","null","346","stimuli/kitchen_63.jpg","","","","",""
"","","","","","image-keyboard-response","403","2.0.0","428328","p27z2chwkn6","tardigrade666","null","stimuli/street_51.jpg","null","street","C","non-repeat","null","347","stimuli/street_51.jpg","","","","",""
"","","","","","image-keyboard-response","404","2.0.0","429333","p27z2chwkn6","tardigrade666","null","stimuli/bar_63.jpg","null","bar","D","non-repeat","null","348","stimuli/bar_63.jpg","","","","",""
"","","","","","image-keyboard-response","405","2.0.0","430336","p27z2chwkn6","tardigrade666","null","stimuli/bathroom_50.jpg","null","bathroom","E","non-repeat","null","349","stimuli/bathroom_50.jpg","","","","",""
"","","","","","image-keyboard-response","406","2.0.0","431340","p27z2chwkn6","tardigrade666","null","stimuli/playground_60.jpg","null","playground","F","non-repeat","null","350","stimuli/playground_60.jpg","","","","",""
"","","","","","image-keyboard-response","407","2.0.0","432345","p27z2chwkn6","tardigrade666","null","stimuli/field_12.jpg","null","field","J","non-repeat","null","351","stimuli/field_12.jpg","","","","",""
"","","","","","image-keyboard-response","408","2.0.0","433349","p27z2chwkn6","tardigrade666","null","stimuli/woods_23.jpg","null","woods","K","non-repeat","null","352","stimuli/woods_23.jpg","","","","",""
"","","","","","image-keyboard-response","409","2.0.0","434353","p27z2chwkn6","tardigrade666","null","stimuli/stream_16.jpg","null","stream","L","non-repeat","null","353","stimuli/stream_16.jpg","","","","",""
"","","","","","image-keyboard-response","410","2.0.0","435359","p27z2chwkn6","tardigrade666","null","stimuli/desert_37.jpg","null","desert","A","non-repeat","null","354","stimuli/desert_37.jpg","","","","",""
"","","","","","image-keyboard-response","411","2.0.0","436364","p27z2chwkn6","tardigrade666","null","stimuli/kitchen_63.jpg","null","kitchen","B","non-repeat","null","355","stimuli/kitchen_63.jpg","","","","",""
"","","","","","image-keyboard-response","412","2.0.0","437369","p27z2chwkn6","tardigrade666","null","stimuli/street_51.jpg","null","street","C","non-repeat","null","356","stimuli/street_51.jpg","","","","",""
"","","","","","image-keyboard-response","413","2.0.0","438375","p27z2chwkn6","tardigrade666","680","stimuli/street_51.jpg"," ","street","C","repeat"," ","356","","","","","",""
"","","","","","image-keyboard-response","414","2.0.0","439380","p27z2chwkn6","tardigrade666","null","stimuli/field_12.jpg","null","field","J","non-repeat","null","357","stimuli/field_12.jpg","","","","",""
"","","","","","image-keyboard-response","415","2.0.0","440386","p27z2chwkn6","tardigrade666","null","stimuli/woods_23.jpg","null","woods","K","non-repeat","null","358","stimuli/woods_23.jpg","","","","",""
"","","","","","image-keyboard-response","416","2.0.0","441390","p27z2chwkn6","tardigrade666","null","stimuli/stream_16.jpg","null","stream","L","non-repeat","null","359","stimuli/stream_16.jpg","","","","",""
"","","","","","image-keyboard-response","417","2.0.0","442395","p27z2chwkn6","tardigrade666","null","stimuli/bar_63.jpg","null","bar","D","non-repeat","null","360","stimuli/bar_63.jpg","","","","",""
"","","","","","image-keyboard-response","418","2.0.0","443400","p27z2chwkn6","tardigrade666","null","stimuli/bathroom_50.jpg","null","bathroom","E","non-repeat","null","361","stimuli/bathroom_50.jpg","","","","",""
"","","","","","image-keyboard-response","419","2.0.0","444405","p27z2chwkn6","tardigrade666","null","stimuli/playground_60.jpg","null","playground","F","non-repeat","null","362","stimuli/playground_60.jpg","","","","",""
"","","","","","image-keyboard-response","420","2.0.0","445409","p27z2chwkn6","tardigrade666","null","stimuli/field_12.jpg","null","field","J","non-repeat","null","363","stimuli/field_12.jpg","","","","",""
"","","","","","image-keyboard-response","421","2.0.0","446414","p27z2chwkn6","tardigrade666","null","stimuli/woods_23.jpg","null","woods","K","non-repeat","null","364","stimuli/woods_23.jpg","","","","",""
"","","","","","image-keyboard-response","422","2.0.0","447433","p27z2chwkn6","tardigrade666","null","stimuli/stream_16.jpg","null","stream","L","non-repeat","null","365","stimuli/stream_16.jpg","","","","",""
"","","","","","image-keyboard-response","423","2.0.0","448438","p27z2chwkn6","tardigrade666","null","stimuli/desert_37.jpg","null","desert","A","non-repeat","null","366","stimuli/desert_37.jpg","","","","",""
"","","","","","image-keyboard-response","424","2.0.0","449443","p27z2chwkn6","tardigrade666","517","stimuli/desert_37.jpg"," ","desert","A","repeat"," ","366","","","","","",""
"","","","","","image-keyboard-response","425","2.0.0","450448","p27z2chwkn6","tardigrade666","null","stimuli/kitchen_63.jpg","null","kitchen","B","non-repeat","null","367","stimuli/kitchen_63.jpg","","","","",""
"","","","","","image-keyboard-response","426","2.0.0","451454","p27z2chwkn6","tardigrade666","null","stimuli/street_51.jpg","null","street","C","non-repeat","null","368","stimuli/street_51.jpg","","","","",""
"","","","","","image-keyboard-response","427","2.0.0","452459","p27z2chwkn6","tardigrade666","652","stimuli/street_51.jpg"," ","street","C","repeat"," ","368","","","","","",""
"","","","","","image-keyboard-response","428","2.0.0","453464","p27z2chwkn6","tardigrade666","null","stimuli/bridge_21.jpg","null","bridge","G","non-repeat","null","369","stimuli/bridge_21.jpg","","","","",""
"","","","","","image-keyboard-response","429","2.0.0","454468","p27z2chwkn6","tardigrade666","null","stimuli/gym_10.jpg","null","gym","H","non-repeat","null","370","stimuli/gym_10.jpg","","","","",""
"","","","","","image-keyboard-response","430","2.0.0","455472","p27z2chwkn6","tardigrade666","null","stimuli/coast_29.jpg","null","coast","I","non-repeat","null","371","stimuli/coast_29.jpg","","","","",""
"","","","","","image-keyboard-response","431","2.0.0","456476","p27z2chwkn6","tardigrade666","null","stimuli/desert_37.jpg","null","desert","A","non-repeat","null","372","stimuli/desert_37.jpg","","","","",""
"","","","","","image-keyboard-response","432","2.0.0","457481","p27z2chwkn6","tardigrade666","null","stimuli/kitchen_63.jpg","null","kitchen","B","non-repeat","null","373","stimuli/kitchen_63.jpg","","","","",""
"","","","","","image-keyboard-response","433","2.0.0","458485","p27z2chwkn6","tardigrade666","null","stimuli/street_51.jpg","null","street","C","non-repeat","null","374","stimuli/street_51.jpg","","","","",""
"","","","","","image-keyboard-response","434","2.0.0","459488","p27z2chwkn6","tardigrade666","null","stimuli/bar_63.jpg","null","bar","D","non-repeat","null","375","stimuli/bar_63.jpg","","","","",""
"","","","","","image-keyboard-response","435","2.0.0","460492","p27z2chwkn6","tardigrade666","null","stimuli/bathroom_50.jpg","null","bathroom","E","non-repeat","null","376","stimuli/bathroom_50.jpg","","","","",""
"","","","","","image-keyboard-response","436","2.0.0","461497","p27z2chwkn6","tardigrade666","null","stimuli/playground_60.jpg","null","playground","F","non-repeat","null","377","stimuli/playground_60.jpg","","","","",""
"","","","","","html-keyboard-response","437","2.0.0","485689","p27z2chwkn6","tardigrade666","24189","
    <div style='width:900px;margin: auto;'><p>In the next part of the experiment, we want to see how well you learned the structure in the stream of images.</p>
    <p>On each trial, you will see two sequences of three images, sequence 1 and 2. We will ask you to indicate which sequence was more familiar based on the first part of the experiment.</p>
    <p>Press 1 if the first sequence (sequence 1) felt more familiar. Press 2 if the second sequence (sequence 2) felt more familiar.</p>
    <p>Press any key to begin.</p></div>","1","","","","","","","","","","",""
"","","","","","html-keyboard-response","438","2.0.0","486693","p27z2chwkn6","tardigrade666","null","<p>Sequence 1</p>","null","","","","","","","","","","",""
"","","","","","image-keyboard-response","439","2.0.0","487698","p27z2chwkn6","tardigrade666","null","stimuli/bridge_21.jpg","null","","","","","","","","","","",""
"","","","","","image-keyboard-response","440","2.0.0","488702","p27z2chwkn6","tardigrade666","null","stimuli/gym_10.jpg","null","","","","","","","","","","",""
"","","","","","image-keyboard-response","441","2.0.0","489705","p27z2chwkn6","tardigrade666","null","stimuli/coast_29.jpg","null","","","","","","","","","","",""
"","","","","","html-keyboard-response","442","2.0.0","490707","p27z2chwkn6","tardigrade666","null","<p></p>","null","","","","","","","","","","",""
"","","","","","html-keyboard-response","443","2.0.0","491709","p27z2chwkn6","tardigrade666","null","<p>Sequence 2</p>","null","","","","","","","","","","",""
"","","","","","image-keyboard-response","444","2.0.0","492715","p27z2chwkn6","tardigrade666","null","stimuli/bridge_21.jpg","null","","","","","","","","","","",""
"","","","","","image-keyboard-response","445","2.0.0","493719","p27z2chwkn6","tardigrade666","null","stimuli/woods_23.jpg","null","","","","","","","","","","",""
"","","","","","image-keyboard-response","446","2.0.0","494723","p27z2chwkn6","tardigrade666","null","stimuli/street_51.jpg","null","","","","","","","","","","",""
"","","","","","html-keyboard-response","447","2.0.0","495891","p27z2chwkn6","tardigrade666","1166","<p>Press '1' if the first sequence was familiar, '2' if the second was.</p>","1","","","1","","","","[""G"",""H"",""I""]","[""G"",""K"",""C""]","true","[""<p>Sequence 1</p>"",""stimuli/bridge_21.jpg"",""stimuli/gym_10.jpg"",""stimuli/coast_29.jpg""]","[""<p>Sequence 2</p>"",""stimuli/bridge_21.jpg"",""stimuli/woods_23.jpg"",""stimuli/street_51.jpg""]"
"","","","","","html-keyboard-response","448","2.0.0","496895","p27z2chwkn6","tardigrade666","null","<p>Sequence 1</p>","null","","","","","","","","","","",""
"","","","","","image-keyboard-response","449","2.0.0","497900","p27z2chwkn6","tardigrade666","null","stimuli/bar_63.jpg","null","","","","","","","","","","",""
"","","","","","image-keyboard-response","450","2.0.0","498906","p27z2chwkn6","tardigrade666","null","stimuli/bathroom_50.jpg","null","","","","","","","","","","",""
"","","","","","image-keyboard-response","451","2.0.0","499909","p27z2chwkn6","tardigrade666","null","stimuli/playground_60.jpg","null","","","","","","","","","","",""
"","","","","","html-keyboard-response","452","2.0.0","500914","p27z2chwkn6","tardigrade666","null","<p></p>","null","","","","","","","","","","",""
"","","","","","html-keyboard-response","453","2.0.0","501917","p27z2chwkn6","tardigrade666","null","<p>Sequence 2</p>","null","","","","","","","","","","",""
"","","","","","image-keyboard-response","454","2.0.0","502922","p27z2chwkn6","tardigrade666","null","stimuli/bar_63.jpg","null","","","","","","","","","","",""
"","","","","","image-keyboard-response","455","2.0.0","503926","p27z2chwkn6","tardigrade666","null","stimuli/gym_10.jpg","null","","","","","","","","","","",""
"","","","","","image-keyboard-response","456","2.0.0","504931","p27z2chwkn6","tardigrade666","null","stimuli/stream_16.jpg","null","","","","","","","","","","",""
"","","","","","html-keyboard-response","457","2.0.0","505563","p27z2chwkn6","tardigrade666","629","<p>Press '1' if the first sequence was familiar, '2' if the second was.</p>","1","","","1","","","","[""D"",""E"",""F""]","[""D"",""H"",""L""]","true","[""<p>Sequence 1</p>"",""stimuli/bar_63.jpg"",""stimuli/bathroom_50.jpg"",""stimuli/playground_60.jpg""]","[""<p>Sequence 2</p>"",""stimuli/bar_63.jpg"",""stimuli/gym_10.jpg"",""stimuli/stream_16.jpg""]"
"","","","","","html-keyboard-response","458","2.0.0","506567","p27z2chwkn6","tardigrade666","null","<p>Sequence 1</p>","null","","","","","","","","","","",""
"","","","","","image-keyboard-response","459","2.0.0","507572","p27z2chwkn6","tardigrade666","null","stimuli/field_12.jpg","null","","","","","","","","","","",""
"","","","","","image-keyboard-response","460","2.0.0","508576","p27z2chwkn6","tardigrade666","null","stimuli/kitchen_63.jpg","null","","","","","","","","","","",""
"","","","","","image-keyboard-response","461","2.0.0","509580","p27z2chwkn6","tardigrade666","null","stimuli/playground_60.jpg","null","","","","","","","","","","",""
"","","","","","html-keyboard-response","462","2.0.0","510585","p27z2chwkn6","tardigrade666","null","<p></p>","null","","","","","","","","","","",""
"","","","","","html-keyboard-response","463","2.0.0","511590","p27z2chwkn6","tardigrade666","null","<p>Sequence 2</p>","null","","","","","","","","","","",""
"","","","","","image-keyboard-response","464","2.0.0","512594","p27z2chwkn6","tardigrade666","null","stimuli/desert_37.jpg","null","","","","","","","","","","",""
"","","","","","image-keyboard-response","465","2.0.0","513599","p27z2chwkn6","tardigrade666","null","stimuli/kitchen_63.jpg","null","","","","","","","","","","",""
"","","","","","image-keyboard-response","466","2.0.0","514603","p27z2chwkn6","tardigrade666","null","stimuli/street_51.jpg","null","","","","","","","","","","",""
"","","","","","html-keyboard-response","467","2.0.0","515221","p27z2chwkn6","tardigrade666","615","<p>Press '1' if the first sequence was familiar, '2' if the second was.</p>","2","","","2","","","","[""A"",""B"",""C""]","[""J"",""B"",""F""]","true","[""<p>Sequence 1</p>"",""stimuli/field_12.jpg"",""stimuli/kitchen_63.jpg"",""stimuli/playground_60.jpg""]","[""<p>Sequence 2</p>"",""stimuli/desert_37.jpg"",""stimuli/kitchen_63.jpg"",""stimuli/street_51.jpg""]"
"","","","","","html-keyboard-response","468","2.0.0","516225","p27z2chwkn6","tardigrade666","null","<p>Sequence 1</p>","null","","","","","","","","","","",""
"","","","","","image-keyboard-response","469","2.0.0","517230","p27z2chwkn6","tardigrade666","null","stimuli/bar_63.jpg","null","","","","","","","","","","",""
"","","","","","image-keyboard-response","470","2.0.0","518235","p27z2chwkn6","tardigrade666","null","stimuli/gym_10.jpg","null","","","","","","","","","","",""
"","","","","","image-keyboard-response","471","2.0.0","519239","p27z2chwkn6","tardigrade666","null","stimuli/stream_16.jpg","null","","","","","","","","","","",""
"","","","","","html-keyboard-response","472","2.0.0","520242","p27z2chwkn6","tardigrade666","null","<p></p>","null","","","","","","","","","","",""
"","","","","","html-keyboard-response","473","2.0.0","521246","p27z2chwkn6","tardigrade666","null","<p>Sequence 2</p>","null","","","","","","","","","","",""
"","","","","","image-keyboard-response","474","2.0.0","522251","p27z2chwkn6","tardigrade666","null","stimuli/field_12.jpg","null","","","","","","","","","","",""
"","","","","","image-keyboard-response","475","2.0.0","523255","p27z2chwkn6","tardigrade666","null","stimuli/woods_23.jpg","null","","","","","","","","","","",""
"","","","","","image-keyboard-response","476","2.0.0","524260","p27z2chwkn6","tardigrade666","null","stimuli/stream_16.jpg","null","","","","","","","","","","",""
"","","","","","html-keyboard-response","477","2.0.0","524605","p27z2chwkn6","tardigrade666","343","<p>Press '1' if the first sequence was familiar, '2' if the second was.</p>","2","","","2","","","","[""J"",""K"",""L""]","[""D"",""H"",""L""]","true","[""<p>Sequence 1</p>"",""stimuli/bar_63.jpg"",""stimuli/gym_10.jpg"",""stimuli/stream_16.jpg""]","[""<p>Sequence 2</p>"",""stimuli/field_12.jpg"",""stimuli/woods_23.jpg"",""stimuli/stream_16.jpg""]"
"","","","","","html-keyboard-response","478","2.0.0","525609","p27z2chwkn6","tardigrade666","null","<p>Sequence 1</p>","null","","","","","","","","","","",""
"","","","","","image-keyboard-response","479","2.0.0","526614","p27z2chwkn6","tardigrade666","null","stimuli/field_12.jpg","null","","","","","","","","","","",""
"","","","","","image-keyboard-response","480","2.0.0","527619","p27z2chwkn6","tardigrade666","null","stimuli/kitchen_63.jpg","null","","","","","","","","","","",""
"","","","","","image-keyboard-response","481","2.0.0","528624","p27z2chwkn6","tardigrade666","null","stimuli/playground_60.jpg","null","","","","","","","","","","",""
"","","","","","html-keyboard-response","482","2.0.0","529628","p27z2chwkn6","tardigrade666","null","<p></p>","null","","","","","","","","","","",""
"","","","","","html-keyboard-response","483","2.0.0","530633","p27z2chwkn6","tardigrade666","null","<p>Sequence 2</p>","null","","","","","","","","","","",""
"","","","","","image-keyboard-response","484","2.0.0","531637","p27z2chwkn6","tardigrade666","null","stimuli/bridge_21.jpg","null","","","","","","","","","","",""
"","","","","","image-keyboard-response","485","2.0.0","532642","p27z2chwkn6","tardigrade666","null","stimuli/gym_10.jpg","null","","","","","","","","","","",""
