"success","timeout","failed_images","failed_audio","failed_video","trial_type","trial_index","plugin_version","time_elapsed","random_id","participant","rt","stimulus","response","category","letter","correct_response","correct_response_key","trial_counter","current_image","test_triplet","foil_triplet","correct","firstSequencePaths","secondSequencePaths"
"true","false","[]","[]","[]","preload","0","2.0.0","1510","p7elzz0ew7p","eagle","","","","","","","","","","","","","",""
"true","","","","","fullscreen","1","null","2055905","p7elzz0ew7p","eagle","773812","","","","","","","","","","","","",""
"","","","","","html-keyboard-response","2","2.0.0","2056972","p7elzz0ew7p","eagle","1065","Welcome to the experiment. Press any key to begin.","ArrowRight","","","","","","","","","","",""
"","","","","","survey-text","3","2.0.0","2060800","p7elzz0ew7p","eagle","3824","","{""participant_id"":""eagle""}","","","","","","","","","","",""
"","","","","","html-keyboard-response","4","2.0.0","2069142","p7elzz0ew7p","eagle","8341","
  <p>For this trial, you will see a series of images.</p>
  <p><b>Press the spacebar whenever you see the same image appear twice in a row.</b></p>
  <p>In other words, whenever the same image repeats back to back, press the spacebar.</p>
  <p>Press any key to begin.</p>"," ","","","","","","","","","","",""
"","","","","","image-keyboard-response","5","2.0.0","2070150","p7elzz0ew7p","eagle","null","stimuli/field_41.jpg","null","field","D","non-repeat","null","0","stimuli/field_41.jpg","","","","",""
"","","","","","image-keyboard-response","6","2.0.0","2071153","p7elzz0ew7p","eagle","null","stimuli/gym_31.jpg","null","gym","E","non-repeat","null","1","stimuli/gym_31.jpg","","","","",""
"","","","","","image-keyboard-response","7","2.0.0","2072158","p7elzz0ew7p","eagle","null","stimuli/playground_41.jpg","null","playground","F","non-repeat","null","2","stimuli/playground_41.jpg","","","","",""
"","","","","","image-keyboard-response","8","2.0.0","2073162","p7elzz0ew7p","eagle","null","stimuli/desert_12.jpg","null","desert","G","non-repeat","null","3","stimuli/desert_12.jpg","","","","",""
"","","","","","image-keyboard-response","9","2.0.0","2074166","p7elzz0ew7p","eagle","null","stimuli/kitchen_34.jpg","null","kitchen","H","non-repeat","null","4","stimuli/kitchen_34.jpg","","","","",""
"","","","","","image-keyboard-response","10","2.0.0","2075171","p7elzz0ew7p","eagle","null","stimuli/stream_59.jpg","null","stream","I","non-repeat","null","5","stimuli/stream_59.jpg","","","","",""
"","","","","","image-keyboard-response","11","2.0.0","2076175","p7elzz0ew7p","eagle","null","stimuli/street_33.jpg","null","street","J","non-repeat","null","6","stimuli/street_33.jpg","","","","",""
"","","","","","image-keyboard-response","12","2.0.0","2077178","p7elzz0ew7p","eagle","null","stimuli/street_33.jpg","null","street","J","repeat"," ","6","","","","","",""
"","","","","","image-keyboard-response","13","2.0.0","2078182","p7elzz0ew7p","eagle","54","stimuli/bathroom_33.jpg"," ","bathroom","K","non-repeat","null","7","stimuli/bathroom_33.jpg","","","","",""
"","","","","","image-keyboard-response","14","2.0.0","2079186","p7elzz0ew7p","eagle","null","stimuli/bridge_51.jpg","null","bridge","L","non-repeat","null","8","stimuli/bridge_51.jpg","","","","",""
"","","","","","image-keyboard-response","15","2.0.0","2080191","p7elzz0ew7p","eagle","472","stimuli/bridge_51.jpg"," ","bridge","L","repeat"," ","8","","","","","",""
"","","","","","image-keyboard-response","16","2.0.0","2081195","p7elzz0ew7p","eagle","null","stimuli/field_41.jpg","null","field","D","non-repeat","null","9","stimuli/field_41.jpg","","","","",""
"","","","","","image-keyboard-response","17","2.0.0","2082200","p7elzz0ew7p","eagle","null","stimuli/gym_31.jpg","null","gym","E","non-repeat","null","10","stimuli/gym_31.jpg","","","","",""
"","","","","","image-keyboard-response","18","2.0.0","2083204","p7elzz0ew7p","eagle","null","stimuli/playground_41.jpg","null","playground","F","non-repeat","null","11","stimuli/playground_41.jpg","","","","",""
"","","","","","image-keyboard-response","19","2.0.0","2084209","p7elzz0ew7p","eagle","null","stimuli/desert_12.jpg","null","desert","G","non-repeat","null","12","stimuli/desert_12.jpg","","","","",""
"","","","","","image-keyboard-response","20","2.0.0","2085214","p7elzz0ew7p","eagle","null","stimuli/kitchen_34.jpg","null","kitchen","H","non-repeat","null","13","stimuli/kitchen_34.jpg","","","","",""
"","","","","","image-keyboard-response","21","2.0.0","2086219","p7elzz0ew7p","eagle","null","stimuli/stream_59.jpg","null","stream","I","non-repeat","null","14","stimuli/stream_59.jpg","","","","",""
"","","","","","image-keyboard-response","22","2.0.0","2087223","p7elzz0ew7p","eagle","null","stimuli/field_41.jpg","null","field","D","non-repeat","null","15","stimuli/field_41.jpg","","","","",""
"","","","","","image-keyboard-response","23","2.0.0","2088227","p7elzz0ew7p","eagle","500","stimuli/field_41.jpg"," ","field","D","repeat"," ","15","","","","","",""
"","","","","","image-keyboard-response","24","2.0.0","2089232","p7elzz0ew7p","eagle","null","stimuli/gym_31.jpg","null","gym","E","non-repeat","null","16","stimuli/gym_31.jpg","","","","",""
"","","","","","image-keyboard-response","25","2.0.0","2090236","p7elzz0ew7p","eagle","null","stimuli/playground_41.jpg","null","playground","F","non-repeat","null","17","stimuli/playground_41.jpg","","","","",""
"","","","","","image-keyboard-response","26","2.0.0","2091240","p7elzz0ew7p","eagle","763","stimuli/playground_41.jpg"," ","playground","F","repeat"," ","17","","","","","",""
"","","","","","image-keyboard-response","27","2.0.0","2092244","p7elzz0ew7p","eagle","null","stimuli/desert_12.jpg","null","desert","G","non-repeat","null","18","stimuli/desert_12.jpg","","","","",""
"","","","","","image-keyboard-response","28","2.0.0","2093248","p7elzz0ew7p","eagle","null","stimuli/kitchen_34.jpg","null","kitchen","H","non-repeat","null","19","stimuli/kitchen_34.jpg","","","","",""
"","","","","","image-keyboard-response","29","2.0.0","2094252","p7elzz0ew7p","eagle","null","stimuli/stream_59.jpg","null","stream","I","non-repeat","null","20","stimuli/stream_59.jpg","","","","",""
"","","","","","image-keyboard-response","30","2.0.0","2095255","p7elzz0ew7p","eagle","null","stimuli/street_33.jpg","null","street","J","non-repeat","null","21","stimuli/street_33.jpg","","","","",""
"","","","","","image-keyboard-response","31","2.0.0","2096260","p7elzz0ew7p","eagle","null","stimuli/bathroom_33.jpg","null","bathroom","K","non-repeat","null","22","stimuli/bathroom_33.jpg","","","","",""
"","","","","","image-keyboard-response","32","2.0.0","2097264","p7elzz0ew7p","eagle","null","stimuli/bridge_51.jpg","null","bridge","L","non-repeat","null","23","stimuli/bridge_51.jpg","","","","",""
"","","","","","image-keyboard-response","33","2.0.0","2098268","p7elzz0ew7p","eagle","null","stimuli/coast_59.jpg","null","coast","A","non-repeat","null","24","stimuli/coast_59.jpg","","","","",""
"","","","","","image-keyboard-response","34","2.0.0","2099272","p7elzz0ew7p","eagle","623","stimuli/coast_59.jpg"," ","coast","A","repeat"," ","24","","","","","",""
"","","","","","image-keyboard-response","35","2.0.0","2100276","p7elzz0ew7p","eagle","null","stimuli/bar_52.jpg","null","bar","B","non-repeat","null","25","stimuli/bar_52.jpg","","","","",""
"","","","","","image-keyboard-response","36","2.0.0","2101287","p7elzz0ew7p","eagle","null","stimuli/woods_27.jpg","null","woods","C","non-repeat","null","26","stimuli/woods_27.jpg","","","","",""
"","","","","","image-keyboard-response","37","2.0.0","2102291","p7elzz0ew7p","eagle","null","stimuli/field_41.jpg","null","field","D","non-repeat","null","27","stimuli/field_41.jpg","","","","",""
"","","","","","image-keyboard-response","38","2.0.0","2103295","p7elzz0ew7p","eagle","null","stimuli/gym_31.jpg","null","gym","E","non-repeat","null","28","stimuli/gym_31.jpg","","","","",""
"","","","","","image-keyboard-response","39","2.0.0","2104299","p7elzz0ew7p","eagle","null","stimuli/playground_41.jpg","null","playground","F","non-repeat","null","29","stimuli/playground_41.jpg","","","","",""
"","","","","","image-keyboard-response","40","2.0.0","2105303","p7elzz0ew7p","eagle","399","stimuli/playground_41.jpg"," ","playground","F","repeat"," ","29","","","","","",""
"","","","","","image-keyboard-response","41","2.0.0","2106306","p7elzz0ew7p","eagle","null","stimuli/street_33.jpg","null","street","J","non-repeat","null","30","stimuli/street_33.jpg","","","","",""
"","","","","","image-keyboard-response","42","2.0.0","2107310","p7elzz0ew7p","eagle","null","stimuli/bathroom_33.jpg","null","bathroom","K","non-repeat","null","31","stimuli/bathroom_33.jpg","","","","",""
"","","","","","image-keyboard-response","43","2.0.0","2108313","p7elzz0ew7p","eagle","null","stimuli/bridge_51.jpg","null","bridge","L","non-repeat","null","32","stimuli/bridge_51.jpg","","","","",""
"","","","","","image-keyboard-response","44","2.0.0","2109317","p7elzz0ew7p","eagle","null","stimuli/field_41.jpg","null","field","D","non-repeat","null","33","stimuli/field_41.jpg","","","","",""
"","","","","","image-keyboard-response","45","2.0.0","2110322","p7elzz0ew7p","eagle","null","stimuli/gym_31.jpg","null","gym","E","non-repeat","null","34","stimuli/gym_31.jpg","","","","",""
"","","","","","image-keyboard-response","46","2.0.0","2111327","p7elzz0ew7p","eagle","null","stimuli/playground_41.jpg","null","playground","F","non-repeat","null","35","stimuli/playground_41.jpg","","","","",""
"","","","","","image-keyboard-response","47","2.0.0","2112331","p7elzz0ew7p","eagle","384","stimuli/playground_41.jpg"," ","playground","F","repeat"," ","35","","","","","",""
"","","","","","image-keyboard-response","48","2.0.0","2113336","p7elzz0ew7p","eagle","null","stimuli/coast_59.jpg","null","coast","A","non-repeat","null","36","stimuli/coast_59.jpg","","","","",""
"","","","","","image-keyboard-response","49","2.0.0","2114340","p7elzz0ew7p","eagle","null","stimuli/bar_52.jpg","null","bar","B","non-repeat","null","37","stimuli/bar_52.jpg","","","","",""
"","","","","","image-keyboard-response","50","2.0.0","2115344","p7elzz0ew7p","eagle","null","stimuli/woods_27.jpg","null","woods","C","non-repeat","null","38","stimuli/woods_27.jpg","","","","",""
"","","","","","image-keyboard-response","51","2.0.0","2116348","p7elzz0ew7p","eagle","null","stimuli/desert_12.jpg","null","desert","G","non-repeat","null","39","stimuli/desert_12.jpg","","","","",""
"","","","","","image-keyboard-response","52","2.0.0","2117352","p7elzz0ew7p","eagle","null","stimuli/kitchen_34.jpg","null","kitchen","H","non-repeat","null","40","stimuli/kitchen_34.jpg","","","","",""
"","","","","","image-keyboard-response","53","2.0.0","2118356","p7elzz0ew7p","eagle","null","stimuli/stream_59.jpg","null","stream","I","non-repeat","null","41","stimuli/stream_59.jpg","","","","",""
"","","","","","image-keyboard-response","54","2.0.0","2119360","p7elzz0ew7p","eagle","null","stimuli/street_33.jpg","null","street","J","non-repeat","null","42","stimuli/street_33.jpg","","","","",""
"","","","","","image-keyboard-response","55","2.0.0","2120365","p7elzz0ew7p","eagle","null","stimuli/bathroom_33.jpg","null","bathroom","K","non-repeat","null","43","stimuli/bathroom_33.jpg","","","","",""
"","","","","","image-keyboard-response","56","2.0.0","2121369","p7elzz0ew7p","eagle","null","stimuli/bridge_51.jpg","null","bridge","L","non-repeat","null","44","stimuli/bridge_51.jpg","","","","",""
"","","","","","image-keyboard-response","57","2.0.0","2122373","p7elzz0ew7p","eagle","402","stimuli/bridge_51.jpg"," ","bridge","L","repeat"," ","44","","","","","",""
"","","","","","image-keyboard-response","58","2.0.0","2123378","p7elzz0ew7p","eagle","null","stimuli/desert_12.jpg","null","desert","G","non-repeat","null","45","stimuli/desert_12.jpg","","","","",""
"","","","","","image-keyboard-response","59","2.0.0","2124382","p7elzz0ew7p","eagle","null","stimuli/kitchen_34.jpg","null","kitchen","H","non-repeat","null","46","stimuli/kitchen_34.jpg","","","","",""
"","","","","","image-keyboard-response","60","2.0.0","2125387","p7elzz0ew7p","eagle","null","stimuli/stream_59.jpg","null","stream","I","non-repeat","null","47","stimuli/stream_59.jpg","","","","",""
"","","","","","image-keyboard-response","61","2.0.0","2126391","p7elzz0ew7p","eagle","null","stimuli/field_41.jpg","null","field","D","non-repeat","null","48","stimuli/field_41.jpg","","","","",""
"","","","","","image-keyboard-response","62","2.0.0","2127396","p7elzz0ew7p","eagle","null","stimuli/gym_31.jpg","null","gym","E","non-repeat","null","49","stimuli/gym_31.jpg","","","","",""
"","","","","","image-keyboard-response","63","2.0.0","2128400","p7elzz0ew7p","eagle","null","stimuli/playground_41.jpg","null","playground","F","non-repeat","null","50","stimuli/playground_41.jpg","","","","",""
"","","","","","image-keyboard-response","64","2.0.0","2129405","p7elzz0ew7p","eagle","null","stimuli/street_33.jpg","null","street","J","non-repeat","null","51","stimuli/street_33.jpg","","","","",""
"","","","","","image-keyboard-response","65","2.0.0","2130409","p7elzz0ew7p","eagle","null","stimuli/bathroom_33.jpg","null","bathroom","K","non-repeat","null","52","stimuli/bathroom_33.jpg","","","","",""
"","","","","","image-keyboard-response","66","2.0.0","2131413","p7elzz0ew7p","eagle","null","stimuli/bridge_51.jpg","null","bridge","L","non-repeat","null","53","stimuli/bridge_51.jpg","","","","",""
"","","","","","image-keyboard-response","67","2.0.0","2132418","p7elzz0ew7p","eagle","399","stimuli/bridge_51.jpg"," ","bridge","L","repeat"," ","53","","","","","",""
"","","","","","image-keyboard-response","68","2.0.0","2133422","p7elzz0ew7p","eagle","null","stimuli/coast_59.jpg","null","coast","A","non-repeat","null","54","stimuli/coast_59.jpg","","","","",""
"","","","","","image-keyboard-response","69","2.0.0","2134426","p7elzz0ew7p","eagle","653","stimuli/coast_59.jpg"," ","coast","A","repeat"," ","54","","","","","",""
"","","","","","image-keyboard-response","70","2.0.0","2135431","p7elzz0ew7p","eagle","null","stimuli/bar_52.jpg","null","bar","B","non-repeat","null","55","stimuli/bar_52.jpg","","","","",""
"","","","","","image-keyboard-response","71","2.0.0","2136435","p7elzz0ew7p","eagle","null","stimuli/woods_27.jpg","null","woods","C","non-repeat","null","56","stimuli/woods_27.jpg","","","","",""
"","","","","","image-keyboard-response","72","2.0.0","2137439","p7elzz0ew7p","eagle","null","stimuli/street_33.jpg","null","street","J","non-repeat","null","57","stimuli/street_33.jpg","","","","",""
"","","","","","image-keyboard-response","73","2.0.0","2138443","p7elzz0ew7p","eagle","null","stimuli/bathroom_33.jpg","null","bathroom","K","non-repeat","null","58","stimuli/bathroom_33.jpg","","","","",""
"","","","","","image-keyboard-response","74","2.0.0","2139447","p7elzz0ew7p","eagle","null","stimuli/bridge_51.jpg","null","bridge","L","non-repeat","null","59","stimuli/bridge_51.jpg","","","","",""
"","","","","","image-keyboard-response","75","2.0.0","2140451","p7elzz0ew7p","eagle","413","stimuli/bridge_51.jpg"," ","bridge","L","repeat"," ","59","","","","","",""
"","","","","","image-keyboard-response","76","2.0.0","2141455","p7elzz0ew7p","eagle","null","stimuli/coast_59.jpg","null","coast","A","non-repeat","null","60","stimuli/coast_59.jpg","","","","",""
"","","","","","image-keyboard-response","77","2.0.0","2142466","p7elzz0ew7p","eagle","null","stimuli/bar_52.jpg","null","bar","B","non-repeat","null","61","stimuli/bar_52.jpg","","","","",""
"","","","","","image-keyboard-response","78","2.0.0","2143469","p7elzz0ew7p","eagle","null","stimuli/woods_27.jpg","null","woods","C","non-repeat","null","62","stimuli/woods_27.jpg","","","","",""
"","","","","","image-keyboard-response","79","2.0.0","2144473","p7elzz0ew7p","eagle","null","stimuli/field_41.jpg","null","field","D","non-repeat","null","63","stimuli/field_41.jpg","","","","",""
"","","","","","image-keyboard-response","80","2.0.0","2145476","p7elzz0ew7p","eagle","null","stimuli/gym_31.jpg","null","gym","E","non-repeat","null","64","stimuli/gym_31.jpg","","","","",""
"","","","","","image-keyboard-response","81","2.0.0","2146480","p7elzz0ew7p","eagle","null","stimuli/playground_41.jpg","null","playground","F","non-repeat","null","65","stimuli/playground_41.jpg","","","","",""
"","","","","","image-keyboard-response","82","2.0.0","2147484","p7elzz0ew7p","eagle","622","stimuli/playground_41.jpg"," ","playground","F","repeat"," ","65","","","","","",""
"","","","","","image-keyboard-response","83","2.0.0","2148488","p7elzz0ew7p","eagle","null","stimuli/coast_59.jpg","null","coast","A","non-repeat","null","66","stimuli/coast_59.jpg","","","","",""
"","","","","","image-keyboard-response","84","2.0.0","2149493","p7elzz0ew7p","eagle","null","stimuli/bar_52.jpg","null","bar","B","non-repeat","null","67","stimuli/bar_52.jpg","","","","",""
"","","","","","image-keyboard-response","85","2.0.0","2150498","p7elzz0ew7p","eagle","null","stimuli/woods_27.jpg","null","woods","C","non-repeat","null","68","stimuli/woods_27.jpg","","","","",""
"","","","","","image-keyboard-response","86","2.0.0","2151502","p7elzz0ew7p","eagle","null","stimuli/field_41.jpg","null","field","D","non-repeat","null","69","stimuli/field_41.jpg","","","","",""
"","","","","","image-keyboard-response","87","2.0.0","2152506","p7elzz0ew7p","eagle","null","stimuli/gym_31.jpg","null","gym","E","non-repeat","null","70","stimuli/gym_31.jpg","","","","",""
"","","","","","image-keyboard-response","88","2.0.0","2153510","p7elzz0ew7p","eagle","null","stimuli/playground_41.jpg","null","playground","F","non-repeat","null","71","stimuli/playground_41.jpg","","","","",""
"","","","","","image-keyboard-response","89","2.0.0","2154514","p7elzz0ew7p","eagle","null","stimuli/coast_59.jpg","null","coast","A","non-repeat","null","72","stimuli/coast_59.jpg","","","","",""
"","","","","","image-keyboard-response","90","2.0.0","2155518","p7elzz0ew7p","eagle","null","stimuli/bar_52.jpg","null","bar","B","non-repeat","null","73","stimuli/bar_52.jpg","","","","",""
"","","","","","image-keyboard-response","91","2.0.0","2156525","p7elzz0ew7p","eagle","null","stimuli/woods_27.jpg","null","woods","C","non-repeat","null","74","stimuli/woods_27.jpg","","","","",""
"","","","","","image-keyboard-response","92","2.0.0","2157529","p7elzz0ew7p","eagle","null","stimuli/field_41.jpg","null","field","D","non-repeat","null","75","stimuli/field_41.jpg","","","","",""
"","","","","","image-keyboard-response","93","2.0.0","2158534","p7elzz0ew7p","eagle","null","stimuli/gym_31.jpg","null","gym","E","non-repeat","null","76","stimuli/gym_31.jpg","","","","",""
"","","","","","image-keyboard-response","94","2.0.0","2159538","p7elzz0ew7p","eagle","null","stimuli/playground_41.jpg","null","playground","F","non-repeat","null","77","stimuli/playground_41.jpg","","","","",""
"","","","","","image-keyboard-response","95","2.0.0","2160542","p7elzz0ew7p","eagle","null","stimuli/street_33.jpg","null","street","J","non-repeat","null","78","stimuli/street_33.jpg","","","","",""
"","","","","","image-keyboard-response","96","2.0.0","2161545","p7elzz0ew7p","eagle","543","stimuli/street_33.jpg"," ","street","J","repeat"," ","78","","","","","",""
"","","","","","image-keyboard-response","97","2.0.0","2162549","p7elzz0ew7p","eagle","null","stimuli/bathroom_33.jpg","null","bathroom","K","non-repeat","null","79","stimuli/bathroom_33.jpg","","","","",""
"","","","","","image-keyboard-response","98","2.0.0","2163552","p7elzz0ew7p","eagle","null","stimuli/bridge_51.jpg","null","bridge","L","non-repeat","null","80","stimuli/bridge_51.jpg","","","","",""
"","","","","","image-keyboard-response","99","2.0.0","2164557","p7elzz0ew7p","eagle","null","stimuli/field_41.jpg","null","field","D","non-repeat","null","81","stimuli/field_41.jpg","","","","",""
"","","","","","image-keyboard-response","100","2.0.0","2165560","p7elzz0ew7p","eagle","null","stimuli/field_41.jpg","null","field","D","repeat"," ","81","","","","","",""
"","","","","","image-keyboard-response","101","2.0.0","2166563","p7elzz0ew7p","eagle","null","stimuli/gym_31.jpg","null","gym","E","non-repeat","null","82","stimuli/gym_31.jpg","","","","",""
"","","","","","image-keyboard-response","102","2.0.0","2167567","p7elzz0ew7p","eagle","null","stimuli/playground_41.jpg","null","playground","F","non-repeat","null","83","stimuli/playground_41.jpg","","","","",""
"","","","","","image-keyboard-response","103","2.0.0","2168572","p7elzz0ew7p","eagle","null","stimuli/street_33.jpg","null","street","J","non-repeat","null","84","stimuli/street_33.jpg","","","","",""
"","","","","","image-keyboard-response","104","2.0.0","2169575","p7elzz0ew7p","eagle","449","stimuli/street_33.jpg"," ","street","J","repeat"," ","84","","","","","",""
"","","","","","image-keyboard-response","105","2.0.0","2170580","p7elzz0ew7p","eagle","null","stimuli/bathroom_33.jpg","null","bathroom","K","non-repeat","null","85","stimuli/bathroom_33.jpg","","","","",""
"","","","","","image-keyboard-response","106","2.0.0","2171584","p7elzz0ew7p","eagle","null","stimuli/bridge_51.jpg","null","bridge","L","non-repeat","null","86","stimuli/bridge_51.jpg","","","","",""
"","","","","","image-keyboard-response","107","2.0.0","2172588","p7elzz0ew7p","eagle","null","stimuli/coast_59.jpg","null","coast","A","non-repeat","null","87","stimuli/coast_59.jpg","","","","",""
"","","","","","image-keyboard-response","108","2.0.0","2173593","p7elzz0ew7p","eagle","null","stimuli/bar_52.jpg","null","bar","B","non-repeat","null","88","stimuli/bar_52.jpg","","","","",""
"","","","","","image-keyboard-response","109","2.0.0","2174597","p7elzz0ew7p","eagle","null","stimuli/woods_27.jpg","null","woods","C","non-repeat","null","89","stimuli/woods_27.jpg","","","","",""
"","","","","","image-keyboard-response","110","2.0.0","2175601","p7elzz0ew7p","eagle","null","stimuli/field_41.jpg","null","field","D","non-repeat","null","90","stimuli/field_41.jpg","","","","",""
"","","","","","image-keyboard-response","111","2.0.0","2176605","p7elzz0ew7p","eagle","null","stimuli/gym_31.jpg","null","gym","E","non-repeat","null","91","stimuli/gym_31.jpg","","","","",""
"","","","","","image-keyboard-response","112","2.0.0","2177609","p7elzz0ew7p","eagle","null","stimuli/playground_41.jpg","null","playground","F","non-repeat","null","92","stimuli/playground_41.jpg","","","","",""
"","","","","","image-keyboard-response","113","2.0.0","2178613","p7elzz0ew7p","eagle","332","stimuli/playground_41.jpg"," ","playground","F","repeat"," ","92","","","","","",""
"","","","","","image-keyboard-response","114","2.0.0","2179623","p7elzz0ew7p","eagle","null","stimuli/desert_12.jpg","null","desert","G","non-repeat","null","93","stimuli/desert_12.jpg","","","","",""
"","","","","","image-keyboard-response","115","2.0.0","2180626","p7elzz0ew7p","eagle","null","stimuli/kitchen_34.jpg","null","kitchen","H","non-repeat","null","94","stimuli/kitchen_34.jpg","","","","",""
"","","","","","image-keyboard-response","116","2.0.0","2181629","p7elzz0ew7p","eagle","null","stimuli/stream_59.jpg","null","stream","I","non-repeat","null","95","stimuli/stream_59.jpg","","","","",""
"","","","","","image-keyboard-response","117","2.0.0","2182632","p7elzz0ew7p","eagle","null","stimuli/coast_59.jpg","null","coast","A","non-repeat","null","96","stimuli/coast_59.jpg","","","","",""
"","","","","","image-keyboard-response","118","2.0.0","2183636","p7elzz0ew7p","eagle","null","stimuli/bar_52.jpg","null","bar","B","non-repeat","null","97","stimuli/bar_52.jpg","","","","",""
"","","","","","image-keyboard-response","119","2.0.0","2184639","p7elzz0ew7p","eagle","null","stimuli/woods_27.jpg","null","woods","C","non-repeat","null","98","stimuli/woods_27.jpg","","","","",""
"","","","","","image-keyboard-response","120","2.0.0","2185644","p7elzz0ew7p","eagle","null","stimuli/desert_12.jpg","null","desert","G","non-repeat","null","99","stimuli/desert_12.jpg","","","","",""
"","","","","","image-keyboard-response","121","2.0.0","2186648","p7elzz0ew7p","eagle","null","stimuli/kitchen_34.jpg","null","kitchen","H","non-repeat","null","100","stimuli/kitchen_34.jpg","","","","",""
"","","","","","image-keyboard-response","122","2.0.0","2187652","p7elzz0ew7p","eagle","null","stimuli/stream_59.jpg","null","stream","I","non-repeat","null","101","stimuli/stream_59.jpg","","","","",""
"","","","","","image-keyboard-response","123","2.0.0","2188657","p7elzz0ew7p","eagle","null","stimuli/coast_59.jpg","null","coast","A","non-repeat","null","102","stimuli/coast_59.jpg","","","","",""
"","","","","","image-keyboard-response","124","2.0.0","2189661","p7elzz0ew7p","eagle","null","stimuli/bar_52.jpg","null","bar","B","non-repeat","null","103","stimuli/bar_52.jpg","","","","",""
"","","","","","image-keyboard-response","125","2.0.0","2190666","p7elzz0ew7p","eagle","null","stimuli/woods_27.jpg","null","woods","C","non-repeat","null","104","stimuli/woods_27.jpg","","","","",""
"","","","","","image-keyboard-response","126","2.0.0","2191669","p7elzz0ew7p","eagle","null","stimuli/street_33.jpg","null","street","J","non-repeat","null","105","stimuli/street_33.jpg","","","","",""
"","","","","","image-keyboard-response","127","2.0.0","2192673","p7elzz0ew7p","eagle","null","stimuli/bathroom_33.jpg","null","bathroom","K","non-repeat","null","106","stimuli/bathroom_33.jpg","","","","",""
"","","","","","image-keyboard-response","128","2.0.0","2193677","p7elzz0ew7p","eagle","null","stimuli/bridge_51.jpg","null","bridge","L","non-repeat","null","107","stimuli/bridge_51.jpg","","","","",""
"","","","","","image-keyboard-response","129","2.0.0","2194681","p7elzz0ew7p","eagle","533","stimuli/bridge_51.jpg"," ","bridge","L","repeat"," ","107","","","","","",""
"","","","","","image-keyboard-response","130","2.0.0","2195685","p7elzz0ew7p","eagle","null","stimuli/coast_59.jpg","null","coast","A","non-repeat","null","108","stimuli/coast_59.jpg","","","","",""
"","","","","","image-keyboard-response","131","2.0.0","2196689","p7elzz0ew7p","eagle","null","stimuli/bar_52.jpg","null","bar","B","non-repeat","null","109","stimuli/bar_52.jpg","","","","",""
"","","","","","image-keyboard-response","132","2.0.0","2197693","p7elzz0ew7p","eagle","null","stimuli/woods_27.jpg","null","woods","C","non-repeat","null","110","stimuli/woods_27.jpg","","","","",""
"","","","","","image-keyboard-response","133","2.0.0","2198696","p7elzz0ew7p","eagle","null","stimuli/desert_12.jpg","null","desert","G","non-repeat","null","111","stimuli/desert_12.jpg","","","","",""
"","","","","","image-keyboard-response","134","2.0.0","2199700","p7elzz0ew7p","eagle","null","stimuli/kitchen_34.jpg","null","kitchen","H","non-repeat","null","112","stimuli/kitchen_34.jpg","","","","",""
"","","","","","image-keyboard-response","135","2.0.0","2200705","p7elzz0ew7p","eagle","null","stimuli/stream_59.jpg","null","stream","I","non-repeat","null","113","stimuli/stream_59.jpg","","","","",""
"","","","","","image-keyboard-response","136","2.0.0","2201709","p7elzz0ew7p","eagle","null","stimuli/street_33.jpg","null","street","J","non-repeat","null","114","stimuli/street_33.jpg","","","","",""
"","","","","","image-keyboard-response","137","2.0.0","2202713","p7elzz0ew7p","eagle","null","stimuli/bathroom_33.jpg","null","bathroom","K","non-repeat","null","115","stimuli/bathroom_33.jpg","","","","",""
"","","","","","image-keyboard-response","138","2.0.0","2203717","p7elzz0ew7p","eagle","null","stimuli/bridge_51.jpg","null","bridge","L","non-repeat","null","116","stimuli/bridge_51.jpg","","","","",""
"","","","","","image-keyboard-response","139","2.0.0","2204722","p7elzz0ew7p","eagle","null","stimuli/desert_12.jpg","null","desert","G","non-repeat","null","117","stimuli/desert_12.jpg","","","","",""
"","","","","","image-keyboard-response","140","2.0.0","2205726","p7elzz0ew7p","eagle","null","stimuli/kitchen_34.jpg","null","kitchen","H","non-repeat","null","118","stimuli/kitchen_34.jpg","","","","",""
"","","","","","image-keyboard-response","141","2.0.0","2206730","p7elzz0ew7p","eagle","null","stimuli/stream_59.jpg","null","stream","I","non-repeat","null","119","stimuli/stream_59.jpg","","","","",""
"","","","","","image-keyboard-response","142","2.0.0","2207734","p7elzz0ew7p","eagle","null","stimuli/coast_59.jpg","null","coast","A","non-repeat","null","120","stimuli/coast_59.jpg","","","","",""
"","","","","","image-keyboard-response","143","2.0.0","2208738","p7elzz0ew7p","eagle","null","stimuli/bar_52.jpg","null","bar","B","non-repeat","null","121","stimuli/bar_52.jpg","","","","",""
"","","","","","image-keyboard-response","144","2.0.0","2209742","p7elzz0ew7p","eagle","null","stimuli/woods_27.jpg","null","woods","C","non-repeat","null","122","stimuli/woods_27.jpg","","","","",""
"","","","","","image-keyboard-response","145","2.0.0","2210746","p7elzz0ew7p","eagle","599","stimuli/woods_27.jpg"," ","woods","C","repeat"," ","122","","","","","",""
"","","","","","image-keyboard-response","146","2.0.0","2211749","p7elzz0ew7p","eagle","null","stimuli/field_41.jpg","null","field","D","non-repeat","null","123","stimuli/field_41.jpg","","","","",""
"","","","","","image-keyboard-response","147","2.0.0","2212753","p7elzz0ew7p","eagle","null","stimuli/gym_31.jpg","null","gym","E","non-repeat","null","124","stimuli/gym_31.jpg","","","","",""
"","","","","","image-keyboard-response","148","2.0.0","2213756","p7elzz0ew7p","eagle","null","stimuli/playground_41.jpg","null","playground","F","non-repeat","null","125","stimuli/playground_41.jpg","","","","",""
"","","","","","image-keyboard-response","149","2.0.0","2214759","p7elzz0ew7p","eagle","null","stimuli/coast_59.jpg","null","coast","A","non-repeat","null","126","stimuli/coast_59.jpg","","","","",""
"","","","","","image-keyboard-response","150","2.0.0","2215762","p7elzz0ew7p","eagle","null","stimuli/bar_52.jpg","null","bar","B","non-repeat","null","127","stimuli/bar_52.jpg","","","","",""
"","","","","","image-keyboard-response","151","2.0.0","2216767","p7elzz0ew7p","eagle","null","stimuli/woods_27.jpg","null","woods","C","non-repeat","null","128","stimuli/woods_27.jpg","","","","",""
"","","","","","image-keyboard-response","152","2.0.0","2217770","p7elzz0ew7p","eagle","null","stimuli/woods_27.jpg","null","woods","C","repeat"," ","128","","","","","",""
"","","","","","image-keyboard-response","153","2.0.0","2218774","p7elzz0ew7p","eagle","null","stimuli/street_33.jpg","null","street","J","non-repeat","null","129","stimuli/street_33.jpg","","","","",""
"","","","","","image-keyboard-response","154","2.0.0","2219778","p7elzz0ew7p","eagle","864","stimuli/street_33.jpg"," ","street","J","repeat"," ","129","","","","","",""
"","","","","","image-keyboard-response","155","2.0.0","2220781","p7elzz0ew7p","eagle","null","stimuli/bathroom_33.jpg","null","bathroom","K","non-repeat","null","130","stimuli/bathroom_33.jpg","","","","",""
"","","","","","image-keyboard-response","156","2.0.0","2221785","p7elzz0ew7p","eagle","null","stimuli/bridge_51.jpg","null","bridge","L","non-repeat","null","131","stimuli/bridge_51.jpg","","","","",""
"","","","","","image-keyboard-response","157","2.0.0","2222789","p7elzz0ew7p","eagle","null","stimuli/coast_59.jpg","null","coast","A","non-repeat","null","132","stimuli/coast_59.jpg","","","","",""
"","","","","","image-keyboard-response","158","2.0.0","2223793","p7elzz0ew7p","eagle","null","stimuli/bar_52.jpg","null","bar","B","non-repeat","null","133","stimuli/bar_52.jpg","","","","",""
"","","","","","image-keyboard-response","159","2.0.0","2224797","p7elzz0ew7p","eagle","null","stimuli/woods_27.jpg","null","woods","C","non-repeat","null","134","stimuli/woods_27.jpg","","","","",""
"","","","","","image-keyboard-response","160","2.0.0","2225801","p7elzz0ew7p","eagle","null","stimuli/street_33.jpg","null","street","J","non-repeat","null","135","stimuli/street_33.jpg","","","","",""
"","","","","","image-keyboard-response","161","2.0.0","2226805","p7elzz0ew7p","eagle","null","stimuli/bathroom_33.jpg","null","bathroom","K","non-repeat","null","136","stimuli/bathroom_33.jpg","","","","",""
"","","","","","image-keyboard-response","162","2.0.0","2227810","p7elzz0ew7p","eagle","null","stimuli/bridge_51.jpg","null","bridge","L","non-repeat","null","137","stimuli/bridge_51.jpg","","","","",""
"","","","","","image-keyboard-response","163","2.0.0","2228814","p7elzz0ew7p","eagle","382","stimuli/bridge_51.jpg"," ","bridge","L","repeat"," ","137","","","","","",""
"","","","","","image-keyboard-response","164","2.0.0","2229818","p7elzz0ew7p","eagle","null","stimuli/coast_59.jpg","null","coast","A","non-repeat","null","138","stimuli/coast_59.jpg","","","","",""
"","","","","","image-keyboard-response","165","2.0.0","2230823","p7elzz0ew7p","eagle","null","stimuli/coast_59.jpg","null","coast","A","repeat"," ","138","","","","","",""
"","","","","","image-keyboard-response","166","2.0.0","2231827","p7elzz0ew7p","eagle","null","stimuli/bar_52.jpg","null","bar","B","non-repeat","null","139","stimuli/bar_52.jpg","","","","",""
"","","","","","image-keyboard-response","167","2.0.0","2232831","p7elzz0ew7p","eagle","null","stimuli/woods_27.jpg","null","woods","C","non-repeat","null","140","stimuli/woods_27.jpg","","","","",""
"","","","","","image-keyboard-response","168","2.0.0","2233835","p7elzz0ew7p","eagle","null","stimuli/desert_12.jpg","null","desert","G","non-repeat","null","141","stimuli/desert_12.jpg","","","","",""
"","","","","","image-keyboard-response","169","2.0.0","2234838","p7elzz0ew7p","eagle","null","stimuli/kitchen_34.jpg","null","kitchen","H","non-repeat","null","142","stimuli/kitchen_34.jpg","","","","",""
"","","","","","image-keyboard-response","170","2.0.0","2235842","p7elzz0ew7p","eagle","null","stimuli/stream_59.jpg","null","stream","I","non-repeat","null","143","stimuli/stream_59.jpg","","","","",""
"","","","","","image-keyboard-response","171","2.0.0","2236847","p7elzz0ew7p","eagle","null","stimuli/coast_59.jpg","null","coast","A","non-repeat","null","144","stimuli/coast_59.jpg","","","","",""
"","","","","","image-keyboard-response","172","2.0.0","2237851","p7elzz0ew7p","eagle","null","stimuli/bar_52.jpg","null","bar","B","non-repeat","null","145","stimuli/bar_52.jpg","","","","",""
"","","","","","image-keyboard-response","173","2.0.0","2238854","p7elzz0ew7p","eagle","null","stimuli/woods_27.jpg","null","woods","C","non-repeat","null","146","stimuli/woods_27.jpg","","","","",""
"","","","","","image-keyboard-response","174","2.0.0","2239858","p7elzz0ew7p","eagle","null","stimuli/street_33.jpg","null","street","J","non-repeat","null","147","stimuli/street_33.jpg","","","","",""
"","","","","","image-keyboard-response","175","2.0.0","2240863","p7elzz0ew7p","eagle","null","stimuli/bathroom_33.jpg","null","bathroom","K","non-repeat","null","148","stimuli/bathroom_33.jpg","","","","",""
"","","","","","image-keyboard-response","176","2.0.0","2241865","p7elzz0ew7p","eagle","null","stimuli/bridge_51.jpg","null","bridge","L","non-repeat","null","149","stimuli/bridge_51.jpg","","","","",""
"","","","","","image-keyboard-response","177","2.0.0","2242869","p7elzz0ew7p","eagle","null","stimuli/desert_12.jpg","null","desert","G","non-repeat","null","150","stimuli/desert_12.jpg","","","","",""
"","","","","","image-keyboard-response","178","2.0.0","2243873","p7elzz0ew7p","eagle","null","stimuli/kitchen_34.jpg","null","kitchen","H","non-repeat","null","151","stimuli/kitchen_34.jpg","","","","",""
"","","","","","image-keyboard-response","179","2.0.0","2244877","p7elzz0ew7p","eagle","null","stimuli/stream_59.jpg","null","stream","I","non-repeat","null","152","stimuli/stream_59.jpg","","","","",""
"","","","","","image-keyboard-response","180","2.0.0","2245880","p7elzz0ew7p","eagle","null","stimuli/stream_59.jpg","null","stream","I","repeat"," ","152","","","","","",""
"","","","","","image-keyboard-response","181","2.0.0","2246884","p7elzz0ew7p","eagle","null","stimuli/street_33.jpg","null","street","J","non-repeat","null","153","stimuli/street_33.jpg","","","","",""
"","","","","","image-keyboard-response","182","2.0.0","2247889","p7elzz0ew7p","eagle","428","stimuli/street_33.jpg"," ","street","J","repeat"," ","153","","","","","",""
"","","","","","image-keyboard-response","183","2.0.0","2248892","p7elzz0ew7p","eagle","null","stimuli/bathroom_33.jpg","null","bathroom","K","non-repeat","null","154","stimuli/bathroom_33.jpg","","","","",""
"","","","","","image-keyboard-response","184","2.0.0","2249897","p7elzz0ew7p","eagle","null","stimuli/bridge_51.jpg","null","bridge","L","non-repeat","null","155","stimuli/bridge_51.jpg","","","","",""
"","","","","","image-keyboard-response","185","2.0.0","2250901","p7elzz0ew7p","eagle","null","stimuli/desert_12.jpg","null","desert","G","non-repeat","null","156","stimuli/desert_12.jpg","","","","",""
"","","","","","image-keyboard-response","186","2.0.0","2251905","p7elzz0ew7p","eagle","null","stimuli/kitchen_34.jpg","null","kitchen","H","non-repeat","null","157","stimuli/kitchen_34.jpg","","","","",""
"","","","","","image-keyboard-response","187","2.0.0","2252909","p7elzz0ew7p","eagle","null","stimuli/stream_59.jpg","null","stream","I","non-repeat","null","158","stimuli/stream_59.jpg","","","","",""
"","","","","","image-keyboard-response","188","2.0.0","2253913","p7elzz0ew7p","eagle","null","stimuli/stream_59.jpg","null","stream","I","repeat"," ","158","","","","","",""
"","","","","","image-keyboard-response","189","2.0.0","2254915","p7elzz0ew7p","eagle","130","stimuli/street_33.jpg"," ","street","J","non-repeat","null","159","stimuli/street_33.jpg","","","","",""
"","","","","","image-keyboard-response","190","2.0.0","2255920","p7elzz0ew7p","eagle","null","stimuli/bathroom_33.jpg","null","bathroom","K","non-repeat","null","160","stimuli/bathroom_33.jpg","","","","",""
"","","","","","image-keyboard-response","191","2.0.0","2256923","p7elzz0ew7p","eagle","null","stimuli/bridge_51.jpg","null","bridge","L","non-repeat","null","161","stimuli/bridge_51.jpg","","","","",""
"","","","","","image-keyboard-response","192","2.0.0","2257927","p7elzz0ew7p","eagle","null","stimuli/desert_12.jpg","null","desert","G","non-repeat","null","162","stimuli/desert_12.jpg","","","","",""
"","","","","","image-keyboard-response","193","2.0.0","2258930","p7elzz0ew7p","eagle","null","stimuli/kitchen_34.jpg","null","kitchen","H","non-repeat","null","163","stimuli/kitchen_34.jpg","","","","",""
"","","","","","image-keyboard-response","194","2.0.0","2259934","p7elzz0ew7p","eagle","null","stimuli/stream_59.jpg","null","stream","I","non-repeat","null","164","stimuli/stream_59.jpg","","","","",""
"","","","","","image-keyboard-response","195","2.0.0","2260939","p7elzz0ew7p","eagle","null","stimuli/coast_59.jpg","null","coast","A","non-repeat","null","165","stimuli/coast_59.jpg","","","","",""
"","","","","","image-keyboard-response","196","2.0.0","2261943","p7elzz0ew7p","eagle","null","stimuli/bar_52.jpg","null","bar","B","non-repeat","null","166","stimuli/bar_52.jpg","","","","",""
"","","","","","image-keyboard-response","197","2.0.0","2262947","p7elzz0ew7p","eagle","null","stimuli/woods_27.jpg","null","woods","C","non-repeat","null","167","stimuli/woods_27.jpg","","","","",""
"","","","","","image-keyboard-response","198","2.0.0","2263958","p7elzz0ew7p","eagle","null","stimuli/desert_12.jpg","null","desert","G","non-repeat","null","168","stimuli/desert_12.jpg","","","","",""
"","","","","","image-keyboard-response","199","2.0.0","2264962","p7elzz0ew7p","eagle","null","stimuli/kitchen_34.jpg","null","kitchen","H","non-repeat","null","169","stimuli/kitchen_34.jpg","","","","",""
"","","","","","image-keyboard-response","200","2.0.0","2265966","p7elzz0ew7p","eagle","null","stimuli/stream_59.jpg","null","stream","I","non-repeat","null","170","stimuli/stream_59.jpg","","","","",""
"","","","","","image-keyboard-response","201","2.0.0","2266969","p7elzz0ew7p","eagle","null","stimuli/street_33.jpg","null","street","J","non-repeat","null","171","stimuli/street_33.jpg","","","","",""
"","","","","","image-keyboard-response","202","2.0.0","2267972","p7elzz0ew7p","eagle","null","stimuli/bathroom_33.jpg","null","bathroom","K","non-repeat","null","172","stimuli/bathroom_33.jpg","","","","",""
"","","","","","image-keyboard-response","203","2.0.0","2268975","p7elzz0ew7p","eagle","null","stimuli/bridge_51.jpg","null","bridge","L","non-repeat","null","173","stimuli/bridge_51.jpg","","","","",""
"","","","","","image-keyboard-response","204","2.0.0","2269979","p7elzz0ew7p","eagle","null","stimuli/desert_12.jpg","null","desert","G","non-repeat","null","174","stimuli/desert_12.jpg","","","","",""
"","","","","","image-keyboard-response","205","2.0.0","2270982","p7elzz0ew7p","eagle","null","stimuli/kitchen_34.jpg","null","kitchen","H","non-repeat","null","175","stimuli/kitchen_34.jpg","","","","",""
"","","","","","image-keyboard-response","206","2.0.0","2271986","p7elzz0ew7p","eagle","null","stimuli/stream_59.jpg","null","stream","I","non-repeat","null","176","stimuli/stream_59.jpg","","","","",""
"","","","","","image-keyboard-response","207","2.0.0","2272990","p7elzz0ew7p","eagle","null","stimuli/street_33.jpg","null","street","J","non-repeat","null","177","stimuli/street_33.jpg","","","","",""
"","","","","","image-keyboard-response","208","2.0.0","2273994","p7elzz0ew7p","eagle","null","stimuli/bathroom_33.jpg","null","bathroom","K","non-repeat","null","178","stimuli/bathroom_33.jpg","","","","",""
"","","","","","image-keyboard-response","209","2.0.0","2274997","p7elzz0ew7p","eagle","null","stimuli/bridge_51.jpg","null","bridge","L","non-repeat","null","179","stimuli/bridge_51.jpg","","","","",""
"","","","","","image-keyboard-response","210","2.0.0","2276000","p7elzz0ew7p","eagle","null","stimuli/coast_59.jpg","null","coast","A","non-repeat","null","180","stimuli/coast_59.jpg","","","","",""
"","","","","","image-keyboard-response","211","2.0.0","2277003","p7elzz0ew7p","eagle","null","stimuli/bar_52.jpg","null","bar","B","non-repeat","null","181","stimuli/bar_52.jpg","","","","",""
"","","","","","image-keyboard-response","212","2.0.0","2278006","p7elzz0ew7p","eagle","null","stimuli/woods_27.jpg","null","woods","C","non-repeat","null","182","stimuli/woods_27.jpg","","","","",""
"","","","","","image-keyboard-response","213","2.0.0","2279009","p7elzz0ew7p","eagle","null","stimuli/field_41.jpg","null","field","D","non-repeat","null","183","stimuli/field_41.jpg","","","","",""
"","","","","","image-keyboard-response","214","2.0.0","2280013","p7elzz0ew7p","eagle","null","stimuli/gym_31.jpg","null","gym","E","non-repeat","null","184","stimuli/gym_31.jpg","","","","",""
"","","","","","image-keyboard-response","215","2.0.0","2281017","p7elzz0ew7p","eagle","null","stimuli/playground_41.jpg","null","playground","F","non-repeat","null","185","stimuli/playground_41.jpg","","","","",""
"","","","","","image-keyboard-response","216","2.0.0","2282020","p7elzz0ew7p","eagle","371","stimuli/playground_41.jpg"," ","playground","F","repeat"," ","185","","","","","",""
"","","","","","image-keyboard-response","217","2.0.0","2283022","p7elzz0ew7p","eagle","null","stimuli/coast_59.jpg","null","coast","A","non-repeat","null","186","stimuli/coast_59.jpg","","","","",""
"","","","","","image-keyboard-response","218","2.0.0","2284026","p7elzz0ew7p","eagle","null","stimuli/bar_52.jpg","null","bar","B","non-repeat","null","187","stimuli/bar_52.jpg","","","","",""
"","","","","","image-keyboard-response","219","2.0.0","2285029","p7elzz0ew7p","eagle","null","stimuli/woods_27.jpg","null","woods","C","non-repeat","null","188","stimuli/woods_27.jpg","","","","",""
"","","","","","image-keyboard-response","220","2.0.0","2286032","p7elzz0ew7p","eagle","null","stimuli/street_33.jpg","null","street","J","non-repeat","null","189","stimuli/street_33.jpg","","","","",""
"","","","","","image-keyboard-response","221","2.0.0","2287035","p7elzz0ew7p","eagle","null","stimuli/bathroom_33.jpg","null","bathroom","K","non-repeat","null","190","stimuli/bathroom_33.jpg","","","","",""
"","","","","","image-keyboard-response","222","2.0.0","2288039","p7elzz0ew7p","eagle","null","stimuli/bridge_51.jpg","null","bridge","L","non-repeat","null","191","stimuli/bridge_51.jpg","","","","",""
"","","","","","image-keyboard-response","223","2.0.0","2289042","p7elzz0ew7p","eagle","null","stimuli/desert_12.jpg","null","desert","G","non-repeat","null","192","stimuli/desert_12.jpg","","","","",""
"","","","","","image-keyboard-response","224","2.0.0","2290046","p7elzz0ew7p","eagle","null","stimuli/kitchen_34.jpg","null","kitchen","H","non-repeat","null","193","stimuli/kitchen_34.jpg","","","","",""
"","","","","","image-keyboard-response","225","2.0.0","2291049","p7elzz0ew7p","eagle","null","stimuli/stream_59.jpg","null","stream","I","non-repeat","null","194","stimuli/stream_59.jpg","","","","",""
"","","","","","image-keyboard-response","226","2.0.0","2292053","p7elzz0ew7p","eagle","null","stimuli/field_41.jpg","null","field","D","non-repeat","null","195","stimuli/field_41.jpg","","","","",""
"","","","","","image-keyboard-response","227","2.0.0","2293057","p7elzz0ew7p","eagle","null","stimuli/gym_31.jpg","null","gym","E","non-repeat","null","196","stimuli/gym_31.jpg","","","","",""
"","","","","","image-keyboard-response","228","2.0.0","2294059","p7elzz0ew7p","eagle","null","stimuli/playground_41.jpg","null","playground","F","non-repeat","null","197","stimuli/playground_41.jpg","","","","",""
"","","","","","image-keyboard-response","229","2.0.0","2295063","p7elzz0ew7p","eagle","null","stimuli/desert_12.jpg","null","desert","G","non-repeat","null","198","stimuli/desert_12.jpg","","","","",""
"","","","","","image-keyboard-response","230","2.0.0","2296067","p7elzz0ew7p","eagle","null","stimuli/kitchen_34.jpg","null","kitchen","H","non-repeat","null","199","stimuli/kitchen_34.jpg","","","","",""
"","","","","","image-keyboard-response","231","2.0.0","2297071","p7elzz0ew7p","eagle","null","stimuli/stream_59.jpg","null","stream","I","non-repeat","null","200","stimuli/stream_59.jpg","","","","",""
"","","","","","image-keyboard-response","232","2.0.0","2298075","p7elzz0ew7p","eagle","null","stimuli/street_33.jpg","null","street","J","non-repeat","null","201","stimuli/street_33.jpg","","","","",""
"","","","","","image-keyboard-response","233","2.0.0","2299079","p7elzz0ew7p","eagle","null","stimuli/bathroom_33.jpg","null","bathroom","K","non-repeat","null","202","stimuli/bathroom_33.jpg","","","","",""
"","","","","","image-keyboard-response","234","2.0.0","2300083","p7elzz0ew7p","eagle","null","stimuli/bridge_51.jpg","null","bridge","L","non-repeat","null","203","stimuli/bridge_51.jpg","","","","",""
"","","","","","image-keyboard-response","235","2.0.0","2301086","p7elzz0ew7p","eagle","null","stimuli/coast_59.jpg","null","coast","A","non-repeat","null","204","stimuli/coast_59.jpg","","","","",""
"","","","","","image-keyboard-response","236","2.0.0","2302089","p7elzz0ew7p","eagle","null","stimuli/bar_52.jpg","null","bar","B","non-repeat","null","205","stimuli/bar_52.jpg","","","","",""
"","","","","","image-keyboard-response","237","2.0.0","2303093","p7elzz0ew7p","eagle","null","stimuli/woods_27.jpg","null","woods","C","non-repeat","null","206","stimuli/woods_27.jpg","","","","",""
"","","","","","image-keyboard-response","238","2.0.0","2304097","p7elzz0ew7p","eagle","null","stimuli/street_33.jpg","null","street","J","non-repeat","null","207","stimuli/street_33.jpg","","","","",""
"","","","","","image-keyboard-response","239","2.0.0","2305102","p7elzz0ew7p","eagle","null","stimuli/bathroom_33.jpg","null","bathroom","K","non-repeat","null","208","stimuli/bathroom_33.jpg","","","","",""
"","","","","","image-keyboard-response","240","2.0.0","2306105","p7elzz0ew7p","eagle","null","stimuli/bridge_51.jpg","null","bridge","L","non-repeat","null","209","stimuli/bridge_51.jpg","","","","",""
"","","","","","image-keyboard-response","241","2.0.0","2307108","p7elzz0ew7p","eagle","null","stimuli/coast_59.jpg","null","coast","A","non-repeat","null","210","stimuli/coast_59.jpg","","","","",""
"","","","","","image-keyboard-response","242","2.0.0","2308113","p7elzz0ew7p","eagle","null","stimuli/bar_52.jpg","null","bar","B","non-repeat","null","211","stimuli/bar_52.jpg","","","","",""
"","","","","","image-keyboard-response","243","2.0.0","2309117","p7elzz0ew7p","eagle","null","stimuli/woods_27.jpg","null","woods","C","non-repeat","null","212","stimuli/woods_27.jpg","","","","",""
"","","","","","image-keyboard-response","244","2.0.0","2310121","p7elzz0ew7p","eagle","null","stimuli/street_33.jpg","null","street","J","non-repeat","null","213","stimuli/street_33.jpg","","","","",""
"","","","","","image-keyboard-response","245","2.0.0","2311126","p7elzz0ew7p","eagle","null","stimuli/bathroom_33.jpg","null","bathroom","K","non-repeat","null","214","stimuli/bathroom_33.jpg","","","","",""
"","","","","","image-keyboard-response","246","2.0.0","2312130","p7elzz0ew7p","eagle","null","stimuli/bridge_51.jpg","null","bridge","L","non-repeat","null","215","stimuli/bridge_51.jpg","","","","",""
"","","","","","image-keyboard-response","247","2.0.0","2313135","p7elzz0ew7p","eagle","null","stimuli/desert_12.jpg","null","desert","G","non-repeat","null","216","stimuli/desert_12.jpg","","","","",""
"","","","","","image-keyboard-response","248","2.0.0","2314138","p7elzz0ew7p","eagle","788","stimuli/desert_12.jpg"," ","desert","G","repeat"," ","216","","","","","",""
"","","","","","image-keyboard-response","249","2.0.0","2315143","p7elzz0ew7p","eagle","null","stimuli/kitchen_34.jpg","null","kitchen","H","non-repeat","null","217","stimuli/kitchen_34.jpg","","","","",""
"","","","","","image-keyboard-response","250","2.0.0","2316147","p7elzz0ew7p","eagle","null","stimuli/stream_59.jpg","null","stream","I","non-repeat","null","218","stimuli/stream_59.jpg","","","","",""
"","","","","","image-keyboard-response","251","2.0.0","2317151","p7elzz0ew7p","eagle","null","stimuli/field_41.jpg","null","field","D","non-repeat","null","219","stimuli/field_41.jpg","","","","",""
"","","","","","image-keyboard-response","252","2.0.0","2318154","p7elzz0ew7p","eagle","null","stimuli/gym_31.jpg","null","gym","E","non-repeat","null","220","stimuli/gym_31.jpg","","","","",""
"","","","","","image-keyboard-response","253","2.0.0","2319158","p7elzz0ew7p","eagle","null","stimuli/playground_41.jpg","null","playground","F","non-repeat","null","221","stimuli/playground_41.jpg","","","","",""
"","","","","","image-keyboard-response","254","2.0.0","2320162","p7elzz0ew7p","eagle","null","stimuli/street_33.jpg","null","street","J","non-repeat","null","222","stimuli/street_33.jpg","","","","",""
"","","","","","image-keyboard-response","255","2.0.0","2321167","p7elzz0ew7p","eagle","444","stimuli/bathroom_33.jpg"," ","bathroom","K","non-repeat","null","223","stimuli/bathroom_33.jpg","","","","",""
"","","","","","image-keyboard-response","256","2.0.0","2322171","p7elzz0ew7p","eagle","null","stimuli/bridge_51.jpg","null","bridge","L","non-repeat","null","224","stimuli/bridge_51.jpg","","","","",""
"","","","","","image-keyboard-response","257","2.0.0","2323176","p7elzz0ew7p","eagle","null","stimuli/bridge_51.jpg","null","bridge","L","repeat"," ","224","","","","","",""
"","","","","","image-keyboard-response","258","2.0.0","2324180","p7elzz0ew7p","eagle","null","stimuli/field_41.jpg","null","field","D","non-repeat","null","225","stimuli/field_41.jpg","","","","",""
"","","","","","image-keyboard-response","259","2.0.0","2325183","p7elzz0ew7p","eagle","null","stimuli/gym_31.jpg","null","gym","E","non-repeat","null","226","stimuli/gym_31.jpg","","","","",""
"","","","","","image-keyboard-response","260","2.0.0","2326188","p7elzz0ew7p","eagle","null","stimuli/playground_41.jpg","null","playground","F","non-repeat","null","227","stimuli/playground_41.jpg","","","","",""
"","","","","","image-keyboard-response","261","2.0.0","2327191","p7elzz0ew7p","eagle","null","stimuli/street_33.jpg","null","street","J","non-repeat","null","228","stimuli/street_33.jpg","","","","",""
"","","","","","image-keyboard-response","262","2.0.0","2328195","p7elzz0ew7p","eagle","null","stimuli/bathroom_33.jpg","null","bathroom","K","non-repeat","null","229","stimuli/bathroom_33.jpg","","","","",""
"","","","","","image-keyboard-response","263","2.0.0","2329199","p7elzz0ew7p","eagle","null","stimuli/bridge_51.jpg","null","bridge","L","non-repeat","null","230","stimuli/bridge_51.jpg","","","","",""
"","","","","","image-keyboard-response","264","2.0.0","2330203","p7elzz0ew7p","eagle","null","stimuli/field_41.jpg","null","field","D","non-repeat","null","231","stimuli/field_41.jpg","","","","",""
"","","","","","image-keyboard-response","265","2.0.0","2331207","p7elzz0ew7p","eagle","null","stimuli/gym_31.jpg","null","gym","E","non-repeat","null","232","stimuli/gym_31.jpg","","","","",""
"","","","","","image-keyboard-response","266","2.0.0","2332211","p7elzz0ew7p","eagle","null","stimuli/playground_41.jpg","null","playground","F","non-repeat","null","233","stimuli/playground_41.jpg","","","","",""
"","","","","","image-keyboard-response","267","2.0.0","2333215","p7elzz0ew7p","eagle","null","stimuli/coast_59.jpg","null","coast","A","non-repeat","null","234","stimuli/coast_59.jpg","","","","",""
"","","","","","image-keyboard-response","268","2.0.0","2334219","p7elzz0ew7p","eagle","null","stimuli/bar_52.jpg","null","bar","B","non-repeat","null","235","stimuli/bar_52.jpg","","","","",""
"","","","","","image-keyboard-response","269","2.0.0","2335222","p7elzz0ew7p","eagle","null","stimuli/woods_27.jpg","null","woods","C","non-repeat","null","236","stimuli/woods_27.jpg","","","","",""
"","","","","","image-keyboard-response","270","2.0.0","2336226","p7elzz0ew7p","eagle","null","stimuli/field_41.jpg","null","field","D","non-repeat","null","237","stimuli/field_41.jpg","","","","",""
"","","","","","image-keyboard-response","271","2.0.0","2337230","p7elzz0ew7p","eagle","null","stimuli/gym_31.jpg","null","gym","E","non-repeat","null","238","stimuli/gym_31.jpg","","","","",""
"","","","","","image-keyboard-response","272","2.0.0","2338234","p7elzz0ew7p","eagle","null","stimuli/playground_41.jpg","null","playground","F","non-repeat","null","239","stimuli/playground_41.jpg","","","","",""
"","","","","","image-keyboard-response","273","2.0.0","2339238","p7elzz0ew7p","eagle","null","stimuli/street_33.jpg","null","street","J","non-repeat","null","240","stimuli/street_33.jpg","","","","",""
"","","","","","image-keyboard-response","274","2.0.0","2340242","p7elzz0ew7p","eagle","654","stimuli/street_33.jpg"," ","street","J","repeat"," ","240","","","","","",""
"","","","","","image-keyboard-response","275","2.0.0","2341246","p7elzz0ew7p","eagle","null","stimuli/bathroom_33.jpg","null","bathroom","K","non-repeat","null","241","stimuli/bathroom_33.jpg","","","","",""
"","","","","","image-keyboard-response","276","2.0.0","2342251","p7elzz0ew7p","eagle","null","stimuli/bridge_51.jpg","null","bridge","L","non-repeat","null","242","stimuli/bridge_51.jpg","","","","",""
"","","","","","image-keyboard-response","277","2.0.0","2343254","p7elzz0ew7p","eagle","null","stimuli/field_41.jpg","null","field","D","non-repeat","null","243","stimuli/field_41.jpg","","","","",""
"","","","","","image-keyboard-response","278","2.0.0","2344258","p7elzz0ew7p","eagle","525","stimuli/gym_31.jpg"," ","gym","E","non-repeat","null","244","stimuli/gym_31.jpg","","","","",""
"","","","","","image-keyboard-response","279","2.0.0","2345260","p7elzz0ew7p","eagle","null","stimuli/playground_41.jpg","null","playground","F","non-repeat","null","245","stimuli/playground_41.jpg","","","","",""
"","","","","","image-keyboard-response","280","2.0.0","2346264","p7elzz0ew7p","eagle","null","stimuli/desert_12.jpg","null","desert","G","non-repeat","null","246","stimuli/desert_12.jpg","","","","",""
"","","","","","image-keyboard-response","281","2.0.0","2347268","p7elzz0ew7p","eagle","null","stimuli/kitchen_34.jpg","null","kitchen","H","non-repeat","null","247","stimuli/kitchen_34.jpg","","","","",""
"","","","","","image-keyboard-response","282","2.0.0","2348272","p7elzz0ew7p","eagle","null","stimuli/stream_59.jpg","null","stream","I","non-repeat","null","248","stimuli/stream_59.jpg","","","","",""
"","","","","","image-keyboard-response","283","2.0.0","2349277","p7elzz0ew7p","eagle","null","stimuli/field_41.jpg","null","field","D","non-repeat","null","249","stimuli/field_41.jpg","","","","",""
"","","","","","image-keyboard-response","284","2.0.0","2350281","p7elzz0ew7p","eagle","null","stimuli/gym_31.jpg","null","gym","E","non-repeat","null","250","stimuli/gym_31.jpg","","","","",""
"","","","","","image-keyboard-response","285","2.0.0","2351283","p7elzz0ew7p","eagle","null","stimuli/playground_41.jpg","null","playground","F","non-repeat","null","251","stimuli/playground_41.jpg","","","","",""
"","","","","","image-keyboard-response","286","2.0.0","2352287","p7elzz0ew7p","eagle","null","stimuli/coast_59.jpg","null","coast","A","non-repeat","null","252","stimuli/coast_59.jpg","","","","",""
"","","","","","image-keyboard-response","287","2.0.0","2353291","p7elzz0ew7p","eagle","null","stimuli/bar_52.jpg","null","bar","B","non-repeat","null","253","stimuli/bar_52.jpg","","","","",""
"","","","","","image-keyboard-response","288","2.0.0","2354295","p7elzz0ew7p","eagle","null","stimuli/woods_27.jpg","null","woods","C","non-repeat","null","254","stimuli/woods_27.jpg","","","","",""
"","","","","","image-keyboard-response","289","2.0.0","2355298","p7elzz0ew7p","eagle","null","stimuli/desert_12.jpg","null","desert","G","non-repeat","null","255","stimuli/desert_12.jpg","","","","",""
"","","","","","image-keyboard-response","290","2.0.0","2356302","p7elzz0ew7p","eagle","null","stimuli/kitchen_34.jpg","null","kitchen","H","non-repeat","null","256","stimuli/kitchen_34.jpg","","","","",""
"","","","","","image-keyboard-response","291","2.0.0","2357306","p7elzz0ew7p","eagle","null","stimuli/stream_59.jpg","null","stream","I","non-repeat","null","257","stimuli/stream_59.jpg","","","","",""
"","","","","","image-keyboard-response","292","2.0.0","2358310","p7elzz0ew7p","eagle","null","stimuli/field_41.jpg","null","field","D","non-repeat","null","258","stimuli/field_41.jpg","","","","",""
"","","","","","image-keyboard-response","293","2.0.0","2359313","p7elzz0ew7p","eagle","779","stimuli/field_41.jpg"," ","field","D","repeat"," ","258","","","","","",""
"","","","","","image-keyboard-response","294","2.0.0","2360318","p7elzz0ew7p","eagle","null","stimuli/gym_31.jpg","null","gym","E","non-repeat","null","259","stimuli/gym_31.jpg","","","","",""
"","","","","","image-keyboard-response","295","2.0.0","2361322","p7elzz0ew7p","eagle","null","stimuli/playground_41.jpg","null","playground","F","non-repeat","null","260","stimuli/playground_41.jpg","","","","",""
"","","","","","image-keyboard-response","296","2.0.0","2362326","p7elzz0ew7p","eagle","null","stimuli/street_33.jpg","null","street","J","non-repeat","null","261","stimuli/street_33.jpg","","","","",""
"","","","","","image-keyboard-response","297","2.0.0","2363330","p7elzz0ew7p","eagle","null","stimuli/bathroom_33.jpg","null","bathroom","K","non-repeat","null","262","stimuli/bathroom_33.jpg","","","","",""
"","","","","","image-keyboard-response","298","2.0.0","2364333","p7elzz0ew7p","eagle","null","stimuli/bridge_51.jpg","null","bridge","L","non-repeat","null","263","stimuli/bridge_51.jpg","","","","",""
"","","","","","image-keyboard-response","299","2.0.0","2365337","p7elzz0ew7p","eagle","null","stimuli/coast_59.jpg","null","coast","A","non-repeat","null","264","stimuli/coast_59.jpg","","","","",""
"","","","","","image-keyboard-response","300","2.0.0","2366341","p7elzz0ew7p","eagle","null","stimuli/bar_52.jpg","null","bar","B","non-repeat","null","265","stimuli/bar_52.jpg","","","","",""
"","","","","","image-keyboard-response","301","2.0.0","2367345","p7elzz0ew7p","eagle","null","stimuli/woods_27.jpg","null","woods","C","non-repeat","null","266","stimuli/woods_27.jpg","","","","",""
"","","","","","image-keyboard-response","302","2.0.0","2368349","p7elzz0ew7p","eagle","null","stimuli/woods_27.jpg","null","woods","C","repeat"," ","266","","","","","",""
"","","","","","image-keyboard-response","303","2.0.0","2369353","p7elzz0ew7p","eagle","null","stimuli/desert_12.jpg","null","desert","G","non-repeat","null","267","stimuli/desert_12.jpg","","","","",""
"","","","","","image-keyboard-response","304","2.0.0","2370357","p7elzz0ew7p","eagle","685","stimuli/desert_12.jpg"," ","desert","G","repeat"," ","267","","","","","",""
"","","","","","image-keyboard-response","305","2.0.0","2371361","p7elzz0ew7p","eagle","null","stimuli/kitchen_34.jpg","null","kitchen","H","non-repeat","null","268","stimuli/kitchen_34.jpg","","","","",""
"","","","","","image-keyboard-response","306","2.0.0","2372365","p7elzz0ew7p","eagle","null","stimuli/stream_59.jpg","null","stream","I","non-repeat","null","269","stimuli/stream_59.jpg","","","","",""
"","","","","","image-keyboard-response","307","2.0.0","2373370","p7elzz0ew7p","eagle","null","stimuli/street_33.jpg","null","street","J","non-repeat","null","270","stimuli/street_33.jpg","","","","",""
"","","","","","image-keyboard-response","308","2.0.0","2374374","p7elzz0ew7p","eagle","null","stimuli/street_33.jpg","null","street","J","repeat"," ","270","","","","","",""
"","","","","","image-keyboard-response","309","2.0.0","2375377","p7elzz0ew7p","eagle","null","stimuli/bathroom_33.jpg","null","bathroom","K","non-repeat","null","271","stimuli/bathroom_33.jpg","","","","",""
"","","","","","image-keyboard-response","310","2.0.0","2376381","p7elzz0ew7p","eagle","null","stimuli/bridge_51.jpg","null","bridge","L","non-repeat","null","272","stimuli/bridge_51.jpg","","","","",""
"","","","","","image-keyboard-response","311","2.0.0","2377385","p7elzz0ew7p","eagle","null","stimuli/coast_59.jpg","null","coast","A","non-repeat","null","273","stimuli/coast_59.jpg","","","","",""
"","","","","","image-keyboard-response","312","2.0.0","2378390","p7elzz0ew7p","eagle","null","stimuli/bar_52.jpg","null","bar","B","non-repeat","null","274","stimuli/bar_52.jpg","","","","",""
"","","","","","image-keyboard-response","313","2.0.0","2379393","p7elzz0ew7p","eagle","null","stimuli/woods_27.jpg","null","woods","C","non-repeat","null","275","stimuli/woods_27.jpg","","","","",""
"","","","","","image-keyboard-response","314","2.0.0","2380398","p7elzz0ew7p","eagle","null","stimuli/street_33.jpg","null","street","J","non-repeat","null","276","stimuli/street_33.jpg","","","","",""
"","","","","","image-keyboard-response","315","2.0.0","2381402","p7elzz0ew7p","eagle","null","stimuli/bathroom_33.jpg","null","bathroom","K","non-repeat","null","277","stimuli/bathroom_33.jpg","","","","",""
"","","","","","image-keyboard-response","316","2.0.0","2382406","p7elzz0ew7p","eagle","null","stimuli/bridge_51.jpg","null","bridge","L","non-repeat","null","278","stimuli/bridge_51.jpg","","","","",""
"","","","","","image-keyboard-response","317","2.0.0","2383410","p7elzz0ew7p","eagle","null","stimuli/coast_59.jpg","null","coast","A","non-repeat","null","279","stimuli/coast_59.jpg","","","","",""
"","","","","","image-keyboard-response","318","2.0.0","2384414","p7elzz0ew7p","eagle","null","stimuli/bar_52.jpg","null","bar","B","non-repeat","null","280","stimuli/bar_52.jpg","","","","",""
"","","","","","image-keyboard-response","319","2.0.0","2385419","p7elzz0ew7p","eagle","null","stimuli/woods_27.jpg","null","woods","C","non-repeat","null","281","stimuli/woods_27.jpg","","","","",""
"","","","","","image-keyboard-response","320","2.0.0","2386423","p7elzz0ew7p","eagle","null","stimuli/field_41.jpg","null","field","D","non-repeat","null","282","stimuli/field_41.jpg","","","","",""
"","","","","","image-keyboard-response","321","2.0.0","2387428","p7elzz0ew7p","eagle","null","stimuli/gym_31.jpg","null","gym","E","non-repeat","null","283","stimuli/gym_31.jpg","","","","",""
"","","","","","image-keyboard-response","322","2.0.0","2388432","p7elzz0ew7p","eagle","null","stimuli/playground_41.jpg","null","playground","F","non-repeat","null","284","stimuli/playground_41.jpg","","","","",""
"","","","","","image-keyboard-response","323","2.0.0","2389436","p7elzz0ew7p","eagle","null","stimuli/coast_59.jpg","null","coast","A","non-repeat","null","285","stimuli/coast_59.jpg","","","","",""
"","","","","","image-keyboard-response","324","2.0.0","2390440","p7elzz0ew7p","eagle","619","stimuli/coast_59.jpg"," ","coast","A","repeat"," ","285","","","","","",""
"","","","","","image-keyboard-response","325","2.0.0","2391444","p7elzz0ew7p","eagle","null","stimuli/bar_52.jpg","null","bar","B","non-repeat","null","286","stimuli/bar_52.jpg","","","","",""
"","","","","","image-keyboard-response","326","2.0.0","2392448","p7elzz0ew7p","eagle","null","stimuli/woods_27.jpg","null","woods","C","non-repeat","null","287","stimuli/woods_27.jpg","","","","",""
"","","","","","image-keyboard-response","327","2.0.0","2393452","p7elzz0ew7p","eagle","null","stimuli/woods_27.jpg","null","woods","C","repeat"," ","287","","","","","",""
"","","","","","image-keyboard-response","328","2.0.0","2394456","p7elzz0ew7p","eagle","null","stimuli/street_33.jpg","null","street","J","non-repeat","null","288","stimuli/street_33.jpg","","","","",""
"","","","","","image-keyboard-response","329","2.0.0","2395460","p7elzz0ew7p","eagle","null","stimuli/bathroom_33.jpg","null","bathroom","K","non-repeat","null","289","stimuli/bathroom_33.jpg","","","","",""
"","","","","","image-keyboard-response","330","2.0.0","2396463","p7elzz0ew7p","eagle","null","stimuli/bridge_51.jpg","null","bridge","L","non-repeat","null","290","stimuli/bridge_51.jpg","","","","",""
"","","","","","image-keyboard-response","331","2.0.0","2397468","p7elzz0ew7p","eagle","null","stimuli/field_41.jpg","null","field","D","non-repeat","null","291","stimuli/field_41.jpg","","","","",""
"","","","","","image-keyboard-response","332","2.0.0","2398472","p7elzz0ew7p","eagle","null","stimuli/gym_31.jpg","null","gym","E","non-repeat","null","292","stimuli/gym_31.jpg","","","","",""
"","","","","","image-keyboard-response","333","2.0.0","2399476","p7elzz0ew7p","eagle","null","stimuli/playground_41.jpg","null","playground","F","non-repeat","null","293","stimuli/playground_41.jpg","","","","",""
"","","","","","image-keyboard-response","334","2.0.0","2400480","p7elzz0ew7p","eagle","null","stimuli/desert_12.jpg","null","desert","G","non-repeat","null","294","stimuli/desert_12.jpg","","","","",""
"","","","","","image-keyboard-response","335","2.0.0","2401483","p7elzz0ew7p","eagle","null","stimuli/kitchen_34.jpg","null","kitchen","H","non-repeat","null","295","stimuli/kitchen_34.jpg","","","","",""
"","","","","","image-keyboard-response","336","2.0.0","2402487","p7elzz0ew7p","eagle","null","stimuli/stream_59.jpg","null","stream","I","non-repeat","null","296","stimuli/stream_59.jpg","","","","",""
"","","","","","image-keyboard-response","337","2.0.0","2403492","p7elzz0ew7p","eagle","null","stimuli/street_33.jpg","null","street","J","non-repeat","null","297","stimuli/street_33.jpg","","","","",""
"","","","","","image-keyboard-response","338","2.0.0","2404496","p7elzz0ew7p","eagle","null","stimuli/bathroom_33.jpg","null","bathroom","K","non-repeat","null","298","stimuli/bathroom_33.jpg","","","","",""
"","","","","","image-keyboard-response","339","2.0.0","2405499","p7elzz0ew7p","eagle","null","stimuli/bridge_51.jpg","null","bridge","L","non-repeat","null","299","stimuli/bridge_51.jpg","","","","",""
"","","","","","image-keyboard-response","340","2.0.0","2406503","p7elzz0ew7p","eagle","null","stimuli/field_41.jpg","null","field","D","non-repeat","null","300","stimuli/field_41.jpg","","","","",""
"","","","","","image-keyboard-response","341","2.0.0","2407507","p7elzz0ew7p","eagle","null","stimuli/gym_31.jpg","null","gym","E","non-repeat","null","301","stimuli/gym_31.jpg","","","","",""
"","","","","","image-keyboard-response","342","2.0.0","2408512","p7elzz0ew7p","eagle","null","stimuli/playground_41.jpg","null","playground","F","non-repeat","null","302","stimuli/playground_41.jpg","","","","",""
"","","","","","image-keyboard-response","343","2.0.0","2409516","p7elzz0ew7p","eagle","null","stimuli/coast_59.jpg","null","coast","A","non-repeat","null","303","stimuli/coast_59.jpg","","","","",""
"","","","","","image-keyboard-response","344","2.0.0","2410520","p7elzz0ew7p","eagle","null","stimuli/bar_52.jpg","null","bar","B","non-repeat","null","304","stimuli/bar_52.jpg","","","","",""
"","","","","","image-keyboard-response","345","2.0.0","2411524","p7elzz0ew7p","eagle","null","stimuli/woods_27.jpg","null","woods","C","non-repeat","null","305","stimuli/woods_27.jpg","","","","",""
"","","","","","image-keyboard-response","346","2.0.0","2412527","p7elzz0ew7p","eagle","null","stimuli/field_41.jpg","null","field","D","non-repeat","null","306","stimuli/field_41.jpg","","","","",""
"","","","","","image-keyboard-response","347","2.0.0","2413531","p7elzz0ew7p","eagle","678","stimuli/field_41.jpg"," ","field","D","repeat"," ","306","","","","","",""
"","","","","","image-keyboard-response","348","2.0.0","2414536","p7elzz0ew7p","eagle","null","stimuli/gym_31.jpg","null","gym","E","non-repeat","null","307","stimuli/gym_31.jpg","","","","",""
"","","","","","image-keyboard-response","349","2.0.0","2415540","p7elzz0ew7p","eagle","null","stimuli/playground_41.jpg","null","playground","F","non-repeat","null","308","stimuli/playground_41.jpg","","","","",""
"","","","","","image-keyboard-response","350","2.0.0","2416544","p7elzz0ew7p","eagle","null","stimuli/desert_12.jpg","null","desert","G","non-repeat","null","309","stimuli/desert_12.jpg","","","","",""
"","","","","","image-keyboard-response","351","2.0.0","2417548","p7elzz0ew7p","eagle","null","stimuli/kitchen_34.jpg","null","kitchen","H","non-repeat","null","310","stimuli/kitchen_34.jpg","","","","",""
"","","","","","image-keyboard-response","352","2.0.0","2418552","p7elzz0ew7p","eagle","null","stimuli/stream_59.jpg","null","stream","I","non-repeat","null","311","stimuli/stream_59.jpg","","","","",""
"","","","","","image-keyboard-response","353","2.0.0","2419556","p7elzz0ew7p","eagle","null","stimuli/street_33.jpg","null","street","J","non-repeat","null","312","stimuli/street_33.jpg","","","","",""
"","","","","","image-keyboard-response","354","2.0.0","2420561","p7elzz0ew7p","eagle","null","stimuli/bathroom_33.jpg","null","bathroom","K","non-repeat","null","313","stimuli/bathroom_33.jpg","","","","",""
"","","","","","image-keyboard-response","355","2.0.0","2421565","p7elzz0ew7p","eagle","null","stimuli/bridge_51.jpg","null","bridge","L","non-repeat","null","314","stimuli/bridge_51.jpg","","","","",""
"","","","","","image-keyboard-response","356","2.0.0","2422569","p7elzz0ew7p","eagle","null","stimuli/coast_59.jpg","null","coast","A","non-repeat","null","315","stimuli/coast_59.jpg","","","","",""
"","","","","","image-keyboard-response","357","2.0.0","2423573","p7elzz0ew7p","eagle","null","stimuli/coast_59.jpg","null","coast","A","repeat"," ","315","","","","","",""
"","","","","","image-keyboard-response","358","2.0.0","2424577","p7elzz0ew7p","eagle","null","stimuli/bar_52.jpg","null","bar","B","non-repeat","null","316","stimuli/bar_52.jpg","","","","",""
"","","","","","image-keyboard-response","359","2.0.0","2425580","p7elzz0ew7p","eagle","null","stimuli/woods_27.jpg","null","woods","C","non-repeat","null","317","stimuli/woods_27.jpg","","","","",""
"","","","","","image-keyboard-response","360","2.0.0","2426585","p7elzz0ew7p","eagle","null","stimuli/street_33.jpg","null","street","J","non-repeat","null","318","stimuli/street_33.jpg","","","","",""
"","","","","","image-keyboard-response","361","2.0.0","2427589","p7elzz0ew7p","eagle","null","stimuli/bathroom_33.jpg","null","bathroom","K","non-repeat","null","319","stimuli/bathroom_33.jpg","","","","",""
"","","","","","image-keyboard-response","362","2.0.0","2428592","p7elzz0ew7p","eagle","null","stimuli/bridge_51.jpg","null","bridge","L","non-repeat","null","320","stimuli/bridge_51.jpg","","","","",""
"","","","","","image-keyboard-response","363","2.0.0","2429596","p7elzz0ew7p","eagle","null","stimuli/bridge_51.jpg","null","bridge","L","repeat"," ","320","","","","","",""
"","","","","","image-keyboard-response","364","2.0.0","2430600","p7elzz0ew7p","eagle","92","stimuli/desert_12.jpg"," ","desert","G","non-repeat","null","321","stimuli/desert_12.jpg","","","","",""
"","","","","","image-keyboard-response","365","2.0.0","2431604","p7elzz0ew7p","eagle","null","stimuli/kitchen_34.jpg","null","kitchen","H","non-repeat","null","322","stimuli/kitchen_34.jpg","","","","",""
"","","","","","image-keyboard-response","366","2.0.0","2432608","p7elzz0ew7p","eagle","null","stimuli/stream_59.jpg","null","stream","I","non-repeat","null","323","stimuli/stream_59.jpg","","","","",""
"","","","","","image-keyboard-response","367","2.0.0","2433612","p7elzz0ew7p","eagle","null","stimuli/street_33.jpg","null","street","J","non-repeat","null","324","stimuli/street_33.jpg","","","","",""
"","","","","","image-keyboard-response","368","2.0.0","2434617","p7elzz0ew7p","eagle","null","stimuli/bathroom_33.jpg","null","bathroom","K","non-repeat","null","325","stimuli/bathroom_33.jpg","","","","",""
"","","","","","image-keyboard-response","369","2.0.0","2435620","p7elzz0ew7p","eagle","null","stimuli/bridge_51.jpg","null","bridge","L","non-repeat","null","326","stimuli/bridge_51.jpg","","","","",""
"","","","","","image-keyboard-response","370","2.0.0","2436623","p7elzz0ew7p","eagle","null","stimuli/coast_59.jpg","null","coast","A","non-repeat","null","327","stimuli/coast_59.jpg","","","","",""
"","","","","","image-keyboard-response","371","2.0.0","2437627","p7elzz0ew7p","eagle","660","stimuli/coast_59.jpg"," ","coast","A","repeat"," ","327","","","","","",""
"","","","","","image-keyboard-response","372","2.0.0","2438631","p7elzz0ew7p","eagle","null","stimuli/bar_52.jpg","null","bar","B","non-repeat","null","328","stimuli/bar_52.jpg","","","","",""
"","","","","","image-keyboard-response","373","2.0.0","2439635","p7elzz0ew7p","eagle","null","stimuli/woods_27.jpg","null","woods","C","non-repeat","null","329","stimuli/woods_27.jpg","","","","",""
"","","","","","image-keyboard-response","374","2.0.0","2440639","p7elzz0ew7p","eagle","null","stimuli/street_33.jpg","null","street","J","non-repeat","null","330","stimuli/street_33.jpg","","","","",""
"","","","","","image-keyboard-response","375","2.0.0","2441643","p7elzz0ew7p","eagle","null","stimuli/bathroom_33.jpg","null","bathroom","K","non-repeat","null","331","stimuli/bathroom_33.jpg","","","","",""
"","","","","","image-keyboard-response","376","2.0.0","2442648","p7elzz0ew7p","eagle","null","stimuli/bridge_51.jpg","null","bridge","L","non-repeat","null","332","stimuli/bridge_51.jpg","","","","",""
"","","","","","image-keyboard-response","377","2.0.0","2443652","p7elzz0ew7p","eagle","null","stimuli/field_41.jpg","null","field","D","non-repeat","null","333","stimuli/field_41.jpg","","","","",""
"","","","","","image-keyboard-response","378","2.0.0","2444655","p7elzz0ew7p","eagle","null","stimuli/gym_31.jpg","null","gym","E","non-repeat","null","334","stimuli/gym_31.jpg","","","","",""
"","","","","","image-keyboard-response","379","2.0.0","2445659","p7elzz0ew7p","eagle","null","stimuli/playground_41.jpg","null","playground","F","non-repeat","null","335","stimuli/playground_41.jpg","","","","",""
"","","","","","image-keyboard-response","380","2.0.0","2446663","p7elzz0ew7p","eagle","614","stimuli/playground_41.jpg"," ","playground","F","repeat"," ","335","","","","","",""
"","","","","","image-keyboard-response","381","2.0.0","2447666","p7elzz0ew7p","eagle","null","stimuli/desert_12.jpg","null","desert","G","non-repeat","null","336","stimuli/desert_12.jpg","","","","",""
"","","","","","image-keyboard-response","382","2.0.0","2448670","p7elzz0ew7p","eagle","null","stimuli/kitchen_34.jpg","null","kitchen","H","non-repeat","null","337","stimuli/kitchen_34.jpg","","","","",""
"","","","","","image-keyboard-response","383","2.0.0","2449674","p7elzz0ew7p","eagle","null","stimuli/stream_59.jpg","null","stream","I","non-repeat","null","338","stimuli/stream_59.jpg","","","","",""
"","","","","","image-keyboard-response","384","2.0.0","2450677","p7elzz0ew7p","eagle","null","stimuli/field_41.jpg","null","field","D","non-repeat","null","339","stimuli/field_41.jpg","","","","",""
"","","","","","image-keyboard-response","385","2.0.0","2451680","p7elzz0ew7p","eagle","null","stimuli/gym_31.jpg","null","gym","E","non-repeat","null","340","stimuli/gym_31.jpg","","","","",""
"","","","","","image-keyboard-response","386","2.0.0","2452685","p7elzz0ew7p","eagle","null","stimuli/playground_41.jpg","null","playground","F","non-repeat","null","341","stimuli/playground_41.jpg","","","","",""
"","","","","","image-keyboard-response","387","2.0.0","2453689","p7elzz0ew7p","eagle","485","stimuli/playground_41.jpg"," ","playground","F","repeat"," ","341","","","","","",""
"","","","","","image-keyboard-response","388","2.0.0","2454692","p7elzz0ew7p","eagle","null","stimuli/desert_12.jpg","null","desert","G","non-repeat","null","342","stimuli/desert_12.jpg","","","","",""
"","","","","","image-keyboard-response","389","2.0.0","2455697","p7elzz0ew7p","eagle","null","stimuli/kitchen_34.jpg","null","kitchen","H","non-repeat","null","343","stimuli/kitchen_34.jpg","","","","",""
"","","","","","image-keyboard-response","390","2.0.0","2456701","p7elzz0ew7p","eagle","null","stimuli/stream_59.jpg","null","stream","I","non-repeat","null","344","stimuli/stream_59.jpg","","","","",""
"","","","","","image-keyboard-response","391","2.0.0","2457705","p7elzz0ew7p","eagle","null","stimuli/stream_59.jpg","null","stream","I","repeat"," ","344","","","","","",""
"","","","","","image-keyboard-response","392","2.0.0","2458709","p7elzz0ew7p","eagle","null","stimuli/street_33.jpg","null","street","J","non-repeat","null","345","stimuli/street_33.jpg","","","","",""
"","","","","","image-keyboard-response","393","2.0.0","2459714","p7elzz0ew7p","eagle","null","stimuli/bathroom_33.jpg","null","bathroom","K","non-repeat","null","346","stimuli/bathroom_33.jpg","","","","",""
"","","","","","image-keyboard-response","394","2.0.0","2460718","p7elzz0ew7p","eagle","null","stimuli/bridge_51.jpg","null","bridge","L","non-repeat","null","347","stimuli/bridge_51.jpg","","","","",""
"","","","","","image-keyboard-response","395","2.0.0","2461722","p7elzz0ew7p","eagle","null","stimuli/desert_12.jpg","null","desert","G","non-repeat","null","348","stimuli/desert_12.jpg","","","","",""
"","","","","","image-keyboard-response","396","2.0.0","2462726","p7elzz0ew7p","eagle","null","stimuli/desert_12.jpg","null","desert","G","repeat"," ","348","","","","","",""
"","","","","","image-keyboard-response","397","2.0.0","2463729","p7elzz0ew7p","eagle","709","stimuli/kitchen_34.jpg"," ","kitchen","H","non-repeat","null","349","stimuli/kitchen_34.jpg","","","","",""
"","","","","","image-keyboard-response","398","2.0.0","2464733","p7elzz0ew7p","eagle","null","stimuli/stream_59.jpg","null","stream","I","non-repeat","null","350","stimuli/stream_59.jpg","","","","",""
"","","","","","image-keyboard-response","399","2.0.0","2465737","p7elzz0ew7p","eagle","null","stimuli/coast_59.jpg","null","coast","A","non-repeat","null","351","stimuli/coast_59.jpg","","","","",""
"","","","","","image-keyboard-response","400","2.0.0","2466740","p7elzz0ew7p","eagle","null","stimuli/bar_52.jpg","null","bar","B","non-repeat","null","352","stimuli/bar_52.jpg","","","","",""
"","","","","","image-keyboard-response","401","2.0.0","2467743","p7elzz0ew7p","eagle","null","stimuli/woods_27.jpg","null","woods","C","non-repeat","null","353","stimuli/woods_27.jpg","","","","",""
"","","","","","image-keyboard-response","402","2.0.0","2468746","p7elzz0ew7p","eagle","null","stimuli/desert_12.jpg","null","desert","G","non-repeat","null","354","stimuli/desert_12.jpg","","","","",""
"","","","","","image-keyboard-response","403","2.0.0","2469750","p7elzz0ew7p","eagle","null","stimuli/kitchen_34.jpg","null","kitchen","H","non-repeat","null","355","stimuli/kitchen_34.jpg","","","","",""
"","","","","","image-keyboard-response","404","2.0.0","2470755","p7elzz0ew7p","eagle","null","stimuli/stream_59.jpg","null","stream","I","non-repeat","null","356","stimuli/stream_59.jpg","","","","",""
"","","","","","image-keyboard-response","405","2.0.0","2471758","p7elzz0ew7p","eagle","null","stimuli/coast_59.jpg","null","coast","A","non-repeat","null","357","stimuli/coast_59.jpg","","","","",""
"","","","","","image-keyboard-response","406","2.0.0","2472762","p7elzz0ew7p","eagle","null","stimuli/bar_52.jpg","null","bar","B","non-repeat","null","358","stimuli/bar_52.jpg","","","","",""
"","","","","","image-keyboard-response","407","2.0.0","2473766","p7elzz0ew7p","eagle","null","stimuli/woods_27.jpg","null","woods","C","non-repeat","null","359","stimuli/woods_27.jpg","","","","",""
"","","","","","image-keyboard-response","408","2.0.0","2474769","p7elzz0ew7p","eagle","null","stimuli/field_41.jpg","null","field","D","non-repeat","null","360","stimuli/field_41.jpg","","","","",""
"","","","","","image-keyboard-response","409","2.0.0","2475772","p7elzz0ew7p","eagle","null","stimuli/gym_31.jpg","null","gym","E","non-repeat","null","361","stimuli/gym_31.jpg","","","","",""
"","","","","","image-keyboard-response","410","2.0.0","2476776","p7elzz0ew7p","eagle","null","stimuli/playground_41.jpg","null","playground","F","non-repeat","null","362","stimuli/playground_41.jpg","","","","",""
"","","","","","image-keyboard-response","411","2.0.0","2477780","p7elzz0ew7p","eagle","null","stimuli/street_33.jpg","null","street","J","non-repeat","null","363","stimuli/street_33.jpg","","","","",""
"","","","","","image-keyboard-response","412","2.0.0","2478785","p7elzz0ew7p","eagle","null","stimuli/bathroom_33.jpg","null","bathroom","K","non-repeat","null","364","stimuli/bathroom_33.jpg","","","","",""
"","","","","","image-keyboard-response","413","2.0.0","2479789","p7elzz0ew7p","eagle","null","stimuli/bridge_51.jpg","null","bridge","L","non-repeat","null","365","stimuli/bridge_51.jpg","","","","",""
"","","","","","image-keyboard-response","414","2.0.0","2480793","p7elzz0ew7p","eagle","null","stimuli/desert_12.jpg","null","desert","G","non-repeat","null","366","stimuli/desert_12.jpg","","","","",""
"","","","","","image-keyboard-response","415","2.0.0","2481796","p7elzz0ew7p","eagle","null","stimuli/kitchen_34.jpg","null","kitchen","H","non-repeat","null","367","stimuli/kitchen_34.jpg","","","","",""
"","","","","","image-keyboard-response","416","2.0.0","2482800","p7elzz0ew7p","eagle","null","stimuli/stream_59.jpg","null","stream","I","non-repeat","null","368","stimuli/stream_59.jpg","","","","",""
"","","","","","image-keyboard-response","417","2.0.0","2483804","p7elzz0ew7p","eagle","null","stimuli/street_33.jpg","null","street","J","non-repeat","null","369","stimuli/street_33.jpg","","","","",""
"","","","","","image-keyboard-response","418","2.0.0","2484809","p7elzz0ew7p","eagle","null","stimuli/bathroom_33.jpg","null","bathroom","K","non-repeat","null","370","stimuli/bathroom_33.jpg","","","","",""
"","","","","","image-keyboard-response","419","2.0.0","2485812","p7elzz0ew7p","eagle","null","stimuli/bridge_51.jpg","null","bridge","L","non-repeat","null","371","stimuli/bridge_51.jpg","","","","",""
"","","","","","image-keyboard-response","420","2.0.0","2486816","p7elzz0ew7p","eagle","null","stimuli/coast_59.jpg","null","coast","A","non-repeat","null","372","stimuli/coast_59.jpg","","","","",""
"","","","","","image-keyboard-response","421","2.0.0","2487820","p7elzz0ew7p","eagle","null","stimuli/coast_59.jpg","null","coast","A","repeat"," ","372","","","","","",""
"","","","","","image-keyboard-response","422","2.0.0","2488824","p7elzz0ew7p","eagle","null","stimuli/bar_52.jpg","null","bar","B","non-repeat","null","373","stimuli/bar_52.jpg","","","","",""
"","","","","","image-keyboard-response","423","2.0.0","2489828","p7elzz0ew7p","eagle","null","stimuli/woods_27.jpg","null","woods","C","non-repeat","null","374","stimuli/woods_27.jpg","","","","",""
"","","","","","image-keyboard-response","424","2.0.0","2490832","p7elzz0ew7p","eagle","577","stimuli/woods_27.jpg"," ","woods","C","repeat"," ","374","","","","","",""
"","","","","","image-keyboard-response","425","2.0.0","2491837","p7elzz0ew7p","eagle","null","stimuli/field_41.jpg","null","field","D","non-repeat","null","375","stimuli/field_41.jpg","","","","",""
"","","","","","image-keyboard-response","426","2.0.0","2492841","p7elzz0ew7p","eagle","null","stimuli/gym_31.jpg","null","gym","E","non-repeat","null","376","stimuli/gym_31.jpg","","","","",""
"","","","","","image-keyboard-response","427","2.0.0","2493845","p7elzz0ew7p","eagle","null","stimuli/playground_41.jpg","null","playground","F","non-repeat","null","377","stimuli/playground_41.jpg","","","","",""
"","","","","","image-keyboard-response","428","2.0.0","2494848","p7elzz0ew7p","eagle","903","stimuli/playground_41.jpg"," ","playground","F","repeat"," ","377","","","","","",""
"","","","","","image-keyboard-response","429","2.0.0","2495852","p7elzz0ew7p","eagle","null","stimuli/desert_12.jpg","null","desert","G","non-repeat","null","378","stimuli/desert_12.jpg","","","","",""
"","","","","","image-keyboard-response","430","2.0.0","2496856","p7elzz0ew7p","eagle","null","stimuli/kitchen_34.jpg","null","kitchen","H","non-repeat","null","379","stimuli/kitchen_34.jpg","","","","",""
"","","","","","image-keyboard-response","431","2.0.0","2497859","p7elzz0ew7p","eagle","null","stimuli/stream_59.jpg","null","stream","I","non-repeat","null","380","stimuli/stream_59.jpg","","","","",""
"","","","","","image-keyboard-response","432","2.0.0","2498863","p7elzz0ew7p","eagle","null","stimuli/street_33.jpg","null","street","J","non-repeat","null","381","stimuli/street_33.jpg","","","","",""
"","","","","","image-keyboard-response","433","2.0.0","2499867","p7elzz0ew7p","eagle","null","stimuli/bathroom_33.jpg","null","bathroom","K","non-repeat","null","382","stimuli/bathroom_33.jpg","","","","",""
"","","","","","image-keyboard-response","434","2.0.0","2500872","p7elzz0ew7p","eagle","null","stimuli/bridge_51.jpg","null","bridge","L","non-repeat","null","383","stimuli/bridge_51.jpg","","","","",""
"","","","","","image-keyboard-response","435","2.0.0","2501876","p7elzz0ew7p","eagle","null","stimuli/desert_12.jpg","null","desert","G","non-repeat","null","384","stimuli/desert_12.jpg","","","","",""
"","","","","","image-keyboard-response","436","2.0.0","2502880","p7elzz0ew7p","eagle","null","stimuli/desert_12.jpg","null","desert","G","repeat"," ","384","","","","","",""
"","","","","","image-keyboard-response","437","2.0.0","2503884","p7elzz0ew7p","eagle","29","stimuli/kitchen_34.jpg"," ","kitchen","H","non-repeat","null","385","stimuli/kitchen_34.jpg","","","","",""
"","","","","","image-keyboard-response","438","2.0.0","2504887","p7elzz0ew7p","eagle","null","stimuli/stream_59.jpg","null","stream","I","non-repeat","null","386","stimuli/stream_59.jpg","","","","",""
"","","","","","image-keyboard-response","439","2.0.0","2505892","p7elzz0ew7p","eagle","null","stimuli/stream_59.jpg","null","stream","I","repeat"," ","386","","","","","",""
"","","","","","image-keyboard-response","440","2.0.0","2506896","p7elzz0ew7p","eagle","null","stimuli/coast_59.jpg","null","coast","A","non-repeat","null","387","stimuli/coast_59.jpg","","","","",""
"","","","","","image-keyboard-response","441","2.0.0","2507900","p7elzz0ew7p","eagle","null","stimuli/bar_52.jpg","null","bar","B","non-repeat","null","388","stimuli/bar_52.jpg","","","","",""
"","","","","","image-keyboard-response","442","2.0.0","2508905","p7elzz0ew7p","eagle","null","stimuli/woods_27.jpg","null","woods","C","non-repeat","null","389","stimuli/woods_27.jpg","","","","",""
"","","","","","image-keyboard-response","443","2.0.0","2509910","p7elzz0ew7p","eagle","513","stimuli/woods_27.jpg"," ","woods","C","repeat"," ","389","","","","","",""
"","","","","","image-keyboard-response","444","2.0.0","2510913","p7elzz0ew7p","eagle","null","stimuli/field_41.jpg","null","field","D","non-repeat","null","390","stimuli/field_41.jpg","","","","",""
"","","","","","image-keyboard-response","445","2.0.0","2511918","p7elzz0ew7p","eagle","null","stimuli/gym_31.jpg","null","gym","E","non-repeat","null","391","stimuli/gym_31.jpg","","","","",""
"","","","","","image-keyboard-response","446","2.0.0","2512922","p7elzz0ew7p","eagle","null","stimuli/playground_41.jpg","null","playground","F","non-repeat","null","392","stimuli/playground_41.jpg","","","","",""
"","","","","","image-keyboard-response","447","2.0.0","2513927","p7elzz0ew7p","eagle","null","stimuli/desert_12.jpg","null","desert","G","non-repeat","null","393","stimuli/desert_12.jpg","","","","",""
"","","","","","image-keyboard-response","448","2.0.0","2514931","p7elzz0ew7p","eagle","null","stimuli/kitchen_34.jpg","null","kitchen","H","non-repeat","null","394","stimuli/kitchen_34.jpg","","","","",""
"","","","","","image-keyboard-response","449","2.0.0","2515936","p7elzz0ew7p","eagle","null","stimuli/stream_59.jpg","null","stream","I","non-repeat","null","395","stimuli/stream_59.jpg","","","","",""
"","","","","","image-keyboard-response","450","2.0.0","2516940","p7elzz0ew7p","eagle","510","stimuli/stream_59.jpg"," ","stream","I","repeat"," ","395","","","","","",""
"","","","","","image-keyboard-response","451","2.0.0","2517945","p7elzz0ew7p","eagle","null","stimuli/field_41.jpg","null","field","D","non-repeat","null","396","stimuli/field_41.jpg","","","","",""
"","","","","","image-keyboard-response","452","2.0.0","2518949","p7elzz0ew7p","eagle","null","stimuli/field_41.jpg","null","field","D","repeat"," ","396","","","","","",""
"","","","","","image-keyboard-response","453","2.0.0","2519953","p7elzz0ew7p","eagle","null","stimuli/gym_31.jpg","null","gym","E","non-repeat","null","397","stimuli/gym_31.jpg","","","","",""
"","","","","","image-keyboard-response","454","2.0.0","2520956","p7elzz0ew7p","eagle","null","stimuli/playground_41.jpg","null","playground","F","non-repeat","null","398","stimuli/playground_41.jpg","","","","",""
"","","","","","image-keyboard-response","455","2.0.0","2521960","p7elzz0ew7p","eagle","919","stimuli/playground_41.jpg"," ","playground","F","repeat"," ","398","","","","","",""
"","","","","","image-keyboard-response","456","2.0.0","2522964","p7elzz0ew7p","eagle","null","stimuli/desert_12.jpg","null","desert","G","non-repeat","null","399","stimuli/desert_12.jpg","","","","",""
"","","","","","image-keyboard-response","457","2.0.0","2523968","p7elzz0ew7p","eagle","null","stimuli/kitchen_34.jpg","null","kitchen","H","non-repeat","null","400","stimuli/kitchen_34.jpg","","","","",""
"","","","","","image-keyboard-response","458","2.0.0","2524971","p7elzz0ew7p","eagle","null","stimuli/stream_59.jpg","null","stream","I","non-repeat","null","401","stimuli/stream_59.jpg","","","","",""
"","","","","","image-keyboard-response","459","2.0.0","2525974","p7elzz0ew7p","eagle","null","stimuli/field_41.jpg","null","field","D","non-repeat","null","402","stimuli/field_41.jpg","","","","",""
"","","","","","image-keyboard-response","460","2.0.0","2526977","p7elzz0ew7p","eagle","null","stimuli/gym_31.jpg","null","gym","E","non-repeat","null","403","stimuli/gym_31.jpg","","","","",""
"","","","","","image-keyboard-response","461","2.0.0","2527981","p7elzz0ew7p","eagle","null","stimuli/playground_41.jpg","null","playground","F","non-repeat","null","404","stimuli/playground_41.jpg","","","","",""
"","","","","","image-keyboard-response","462","2.0.0","2528985","p7elzz0ew7p","eagle","null","stimuli/desert_12.jpg","null","desert","G","non-repeat","null","405","stimuli/desert_12.jpg","","","","",""
"","","","","","image-keyboard-response","463","2.0.0","2529988","p7elzz0ew7p","eagle","null","stimuli/kitchen_34.jpg","null","kitchen","H","non-repeat","null","406","stimuli/kitchen_34.jpg","","","","",""
"","","","","","image-keyboard-response","464","2.0.0","2530992","p7elzz0ew7p","eagle","null","stimuli/stream_59.jpg","null","stream","I","non-repeat","null","407","stimuli/stream_59.jpg","","","","",""
"","","","","","image-keyboard-response","465","2.0.0","2531996","p7elzz0ew7p","eagle","null","stimuli/field_41.jpg","null","field","D","non-repeat","null","408","stimuli/field_41.jpg","","","","",""
"","","","","","image-keyboard-response","466","2.0.0","2532999","p7elzz0ew7p","eagle","null","stimuli/gym_31.jpg","null","gym","E","non-repeat","null","409","stimuli/gym_31.jpg","","","","",""
"","","","","","image-keyboard-response","467","2.0.0","2534002","p7elzz0ew7p","eagle","null","stimuli/playground_41.jpg","null","playground","F","non-repeat","null","410","stimuli/playground_41.jpg","","","","",""
"","","","","","image-keyboard-response","468","2.0.0","2535006","p7elzz0ew7p","eagle","null","stimuli/desert_12.jpg","null","desert","G","non-repeat","null","411","stimuli/desert_12.jpg","","","","",""
"","","","","","image-keyboard-response","469","2.0.0","2536009","p7elzz0ew7p","eagle","642","stimuli/desert_12.jpg"," ","desert","G","repeat"," ","411","","","","","",""
"","","","","","image-keyboard-response","470","2.0.0","2537012","p7elzz0ew7p","eagle","null","stimuli/kitchen_34.jpg","null","kitchen","H","non-repeat","null","412","stimuli/kitchen_34.jpg","","","","",""
"","","","","","image-keyboard-response","471","2.0.0","2538016","p7elzz0ew7p","eagle","null","stimuli/stream_59.jpg","null","stream","I","non-repeat","null","413","stimuli/stream_59.jpg","","","","",""
"","","","","","image-keyboard-response","472","2.0.0","2539020","p7elzz0ew7p","eagle","null","stimuli/coast_59.jpg","null","coast","A","non-repeat","null","414","stimuli/coast_59.jpg","","","","",""
"","","","","","image-keyboard-response","473","2.0.0","2540023","p7elzz0ew7p","eagle","null","stimuli/bar_52.jpg","null","bar","B","non-repeat","null","415","stimuli/bar_52.jpg","","","","",""
"","","","","","image-keyboard-response","474","2.0.0","2541026","p7elzz0ew7p","eagle","null","stimuli/woods_27.jpg","null","woods","C","non-repeat","null","416","stimuli/woods_27.jpg","","","","",""
"","","","","","image-keyboard-response","475","2.0.0","2542030","p7elzz0ew7p","eagle","121","stimuli/woods_27.jpg"," ","woods","C","repeat"," ","416","","","","","",""
"","","","","","image-keyboard-response","476","2.0.0","2543034","p7elzz0ew7p","eagle","null","stimuli/field_41.jpg","null","field","D","non-repeat","null","417","stimuli/field_41.jpg","","","","",""
"","","","","","image-keyboard-response","477","2.0.0","2544037","p7elzz0ew7p","eagle","null","stimuli/gym_31.jpg","null","gym","E","non-repeat","null","418","stimuli/gym_31.jpg","","","","",""
"","","","","","image-keyboard-response","478","2.0.0","2545041","p7elzz0ew7p","eagle","null","stimuli/playground_41.jpg","null","playground","F","non-repeat","null","419","stimuli/playground_41.jpg","","","","",""
"","","","","","image-keyboard-response","479","2.0.0","2546045","p7elzz0ew7p","eagle","null","stimuli/desert_12.jpg","null","desert","G","non-repeat","null","420","stimuli/desert_12.jpg","","","","",""
"","","","","","image-keyboard-response","480","2.0.0","2547049","p7elzz0ew7p","eagle","null","stimuli/kitchen_34.jpg","null","kitchen","H","non-repeat","null","421","stimuli/kitchen_34.jpg","","","","",""
"","","","","","image-keyboard-response","481","2.0.0","2548053","p7elzz0ew7p","eagle","null","stimuli/stream_59.jpg","null","stream","I","non-repeat","null","422","stimuli/stream_59.jpg","","","","",""
"","","","","","image-keyboard-response","482","2.0.0","2549057","p7elzz0ew7p","eagle","null","stimuli/coast_59.jpg","null","coast","A","non-repeat","null","423","stimuli/coast_59.jpg","","","","",""
"","","","","","image-keyboard-response","483","2.0.0","2550061","p7elzz0ew7p","eagle","null","stimuli/bar_52.jpg","null","bar","B","non-repeat","null","424","stimuli/bar_52.jpg","","","","",""
"","","","","","image-keyboard-response","484","2.0.0","2551066","p7elzz0ew7p","eagle","null","stimuli/woods_27.jpg","null","woods","C","non-repeat","null","425","stimuli/woods_27.jpg","","","","",""
"","","","","","html-keyboard-response","485","2.0.0","2566659","p7elzz0ew7p","eagle","15590","
    <div style='width:900px;margin: auto;'><p>In the next part of the experiment, we want to see how well you learned the structure in the stream of images.</p>
    <p>On each trial, you will see two sequences of three images, sequence 1 and 2. We will ask you to indicate which sequence was more familiar based on the first part of the experiment.</p>
    <p>Press 1 if the first sequence (sequence 1) felt more familiar. Press 2 if the second sequence (sequence 2) felt more familiar.</p>
    <p>Press any key to begin.</p></div>"," ","","","","","","","","","","",""
"","","","","","html-keyboard-response","486","2.0.0","2567662","p7elzz0ew7p","eagle","null","<p>Sequence 1</p>","null","","","","","","","","","","",""
"","","","","","image-keyboard-response","487","2.0.0","2568666","p7elzz0ew7p","eagle","null","stimuli/field_41.jpg","null","","","","","","","","","","",""
"","","","","","image-keyboard-response","488","2.0.0","2569671","p7elzz0ew7p","eagle","null","stimuli/gym_31.jpg","null","","","","","","","","","","",""
"","","","","","image-keyboard-response","489","2.0.0","2570674","p7elzz0ew7p","eagle","null","stimuli/playground_41.jpg","null","","","","","","","","","","",""
"","","","","","html-keyboard-response","490","2.0.0","2571678","p7elzz0ew7p","eagle","null","<p></p>","null","","","","","","","","","","",""
"","","","","","html-keyboard-response","491","2.0.0","2572681","p7elzz0ew7p","eagle","null","<p>Sequence 2</p>","null","","","","","","","","","","",""
"","","","","","image-keyboard-response","492","2.0.0","2573685","p7elzz0ew7p","eagle","null","stimuli/desert_12.jpg","null","","","","","","","","","","",""
"","","","","","image-keyboard-response","493","2.0.0","2574688","p7elzz0ew7p","eagle","null","stimuli/bathroom_33.jpg","null","","","","","","","","","","",""
"","","","","","image-keyboard-response","494","2.0.0","2575690","p7elzz0ew7p","eagle","null","stimuli/woods_27.jpg","null","","","","","","","","","","",""
"","","","","","html-keyboard-response","495","2.0.0","2576886","p7elzz0ew7p","eagle","1194","<p>Press '1' if the first sequence was familiar, '2' if the second was.</p>","1","","","1","","","","[""D"",""E"",""F""]","[""G"",""K"",""C""]","true","[""<p>Sequence 1</p>"",""stimuli/field_41.jpg"",""stimuli/gym_31.jpg"",""stimuli/playground_41.jpg""]","[""<p>Sequence 2</p>"",""stimuli/desert_12.jpg"",""stimuli/bathroom_33.jpg"",""stimuli/woods_27.jpg""]"
"","","","","","html-keyboard-response","496","2.0.0","2577890","p7elzz0ew7p","eagle","null","<p>Sequence 1</p>","null","","","","","","","","","","",""
