"success","timeout","failed_images","failed_audio","failed_video","trial_type","trial_index","plugin_version","time_elapsed","random_id","participant","rt","stimulus","response","category","letter","correct_response","correct_response_key","trial_counter","current_image","test_triplet","foil_triplet","correct","firstSequencePaths","secondSequencePaths"
"true","false","[]","[]","[]","preload","0","2.0.0","400","panu1747hap","cheetah","","","","","","","","","","","","","",""
"true","","","","","fullscreen","1","null","2246","panu1747hap","cheetah","840","","","","","","","","","","","","",""
"","","","","","html-keyboard-response","2","2.0.0","4373","panu1747hap","cheetah","2124","Welcome to the experiment. Press any key to begin."," ","","","","","","","","","","",""
"","","","","","survey-text","3","2.0.0","7339","panu1747hap","cheetah","2961","","{""participant_id"":""cheetah""}","","","","","","","","","","",""
"","","","","","html-keyboard-response","4","2.0.0","123963","panu1747hap","cheetah","116622","
  <p>For this trial, you will see a series of images.</p>
  <p><b>Press the spacebar whenever you see the same image appear twice in a row.</b></p>
  <p>In other words, whenever the same image repeats back to back, press the spacebar.</p>
  <p>Press any key to begin.</p>"," ","","","","","","","","","","",""
"","","","","","image-keyboard-response","5","2.0.0","124970","panu1747hap","cheetah","null","stimuli/bathroom_2.jpg","null","bathroom","A","non-repeat","null","0","stimuli/bathroom_2.jpg","","","","",""
"","","","","","image-keyboard-response","6","2.0.0","125975","panu1747hap","cheetah","null","stimuli/gym_51.jpg","null","gym","B","non-repeat","null","1","stimuli/gym_51.jpg","","","","",""
"","","","","","image-keyboard-response","7","2.0.0","126980","panu1747hap","cheetah","null","stimuli/field_43.jpg","null","field","C","non-repeat","null","2","stimuli/field_43.jpg","","","","",""
"","","","","","image-keyboard-response","8","2.0.0","127984","panu1747hap","cheetah","null","stimuli/playground_60.jpg","null","playground","G","non-repeat","null","3","stimuli/playground_60.jpg","","","","",""
"","","","","","image-keyboard-response","9","2.0.0","128989","panu1747hap","cheetah","null","stimuli/stream_2.jpg","null","stream","H","non-repeat","null","4","stimuli/stream_2.jpg","","","","",""
"","","","","","image-keyboard-response","10","2.0.0","129992","panu1747hap","cheetah","null","stimuli/bridge_12.jpg","null","bridge","I","non-repeat","null","5","stimuli/bridge_12.jpg","","","","",""
"","","","","","image-keyboard-response","11","2.0.0","130997","panu1747hap","cheetah","656","stimuli/bathroom_2.jpg"," ","bathroom","A","non-repeat","null","6","stimuli/bathroom_2.jpg","","","","",""
"","","","","","image-keyboard-response","12","2.0.0","132001","panu1747hap","cheetah","865","stimuli/gym_51.jpg"," ","gym","B","non-repeat","null","7","stimuli/gym_51.jpg","","","","",""
"","","","","","image-keyboard-response","13","2.0.0","133006","panu1747hap","cheetah","671","stimuli/field_43.jpg"," ","field","C","non-repeat","null","8","stimuli/field_43.jpg","","","","",""
"","","","","","image-keyboard-response","14","2.0.0","134009","panu1747hap","cheetah","686","stimuli/field_43.jpg"," ","field","C","repeat"," ","8","","","","","",""
"","","","","","image-keyboard-response","15","2.0.0","135014","panu1747hap","cheetah","null","stimuli/bar_9.jpg","null","bar","J","non-repeat","null","9","stimuli/bar_9.jpg","","","","",""
"","","","","","image-keyboard-response","16","2.0.0","136017","panu1747hap","cheetah","null","stimuli/kitchen_46.jpg","null","kitchen","K","non-repeat","null","10","stimuli/kitchen_46.jpg","","","","",""
"","","","","","image-keyboard-response","17","2.0.0","137021","panu1747hap","cheetah","null","stimuli/street_47.jpg","null","street","L","non-repeat","null","11","stimuli/street_47.jpg","","","","",""
"","","","","","image-keyboard-response","18","2.0.0","138025","panu1747hap","cheetah","null","stimuli/woods_21.jpg","null","woods","D","non-repeat","null","12","stimuli/woods_21.jpg","","","","",""
"","","","","","image-keyboard-response","19","2.0.0","139027","panu1747hap","cheetah","null","stimuli/desert_36.jpg","null","desert","E","non-repeat","null","13","stimuli/desert_36.jpg","","","","",""
"","","","","","image-keyboard-response","20","2.0.0","140031","panu1747hap","cheetah","null","stimuli/coast_38.jpg","null","coast","F","non-repeat","null","14","stimuli/coast_38.jpg","","","","",""
"","","","","","image-keyboard-response","21","2.0.0","141035","panu1747hap","cheetah","null","stimuli/bar_9.jpg","null","bar","J","non-repeat","null","15","stimuli/bar_9.jpg","","","","",""
"","","","","","image-keyboard-response","22","2.0.0","142038","panu1747hap","cheetah","624","stimuli/bar_9.jpg"," ","bar","J","repeat"," ","15","","","","","",""
"","","","","","image-keyboard-response","23","2.0.0","143042","panu1747hap","cheetah","null","stimuli/kitchen_46.jpg","null","kitchen","K","non-repeat","null","16","stimuli/kitchen_46.jpg","","","","",""
"","","","","","image-keyboard-response","24","2.0.0","144046","panu1747hap","cheetah","null","stimuli/street_47.jpg","null","street","L","non-repeat","null","17","stimuli/street_47.jpg","","","","",""
"","","","","","image-keyboard-response","25","2.0.0","145050","panu1747hap","cheetah","null","stimuli/bathroom_2.jpg","null","bathroom","A","non-repeat","null","18","stimuli/bathroom_2.jpg","","","","",""
"","","","","","image-keyboard-response","26","2.0.0","146054","panu1747hap","cheetah","735","stimuli/bathroom_2.jpg"," ","bathroom","A","repeat"," ","18","","","","","",""
"","","","","","image-keyboard-response","27","2.0.0","147059","panu1747hap","cheetah","null","stimuli/gym_51.jpg","null","gym","B","non-repeat","null","19","stimuli/gym_51.jpg","","","","",""
"","","","","","image-keyboard-response","28","2.0.0","148062","panu1747hap","cheetah","null","stimuli/field_43.jpg","null","field","C","non-repeat","null","20","stimuli/field_43.jpg","","","","",""
"","","","","","image-keyboard-response","29","2.0.0","149066","panu1747hap","cheetah","662","stimuli/field_43.jpg"," ","field","C","repeat"," ","20","","","","","",""
"","","","","","image-keyboard-response","30","2.0.0","150070","panu1747hap","cheetah","null","stimuli/bar_9.jpg","null","bar","J","non-repeat","null","21","stimuli/bar_9.jpg","","","","",""
"","","","","","image-keyboard-response","31","2.0.0","151075","panu1747hap","cheetah","null","stimuli/kitchen_46.jpg","null","kitchen","K","non-repeat","null","22","stimuli/kitchen_46.jpg","","","","",""
"","","","","","image-keyboard-response","32","2.0.0","152079","panu1747hap","cheetah","null","stimuli/street_47.jpg","null","street","L","non-repeat","null","23","stimuli/street_47.jpg","","","","",""
"","","","","","image-keyboard-response","33","2.0.0","153084","panu1747hap","cheetah","null","stimuli/bathroom_2.jpg","null","bathroom","A","non-repeat","null","24","stimuli/bathroom_2.jpg","","","","",""
"","","","","","image-keyboard-response","34","2.0.0","154088","panu1747hap","cheetah","null","stimuli/gym_51.jpg","null","gym","B","non-repeat","null","25","stimuli/gym_51.jpg","","","","",""
"","","","","","image-keyboard-response","35","2.0.0","155091","panu1747hap","cheetah","null","stimuli/field_43.jpg","null","field","C","non-repeat","null","26","stimuli/field_43.jpg","","","","",""
"","","","","","image-keyboard-response","36","2.0.0","156095","panu1747hap","cheetah","null","stimuli/bar_9.jpg","null","bar","J","non-repeat","null","27","stimuli/bar_9.jpg","","","","",""
"","","","","","image-keyboard-response","37","2.0.0","157099","panu1747hap","cheetah","null","stimuli/kitchen_46.jpg","null","kitchen","K","non-repeat","null","28","stimuli/kitchen_46.jpg","","","","",""
"","","","","","image-keyboard-response","38","2.0.0","158103","panu1747hap","cheetah","null","stimuli/street_47.jpg","null","street","L","non-repeat","null","29","stimuli/street_47.jpg","","","","",""
"","","","","","image-keyboard-response","39","2.0.0","159108","panu1747hap","cheetah","626","stimuli/street_47.jpg"," ","street","L","repeat"," ","29","","","","","",""
"","","","","","image-keyboard-response","40","2.0.0","160112","panu1747hap","cheetah","null","stimuli/bathroom_2.jpg","null","bathroom","A","non-repeat","null","30","stimuli/bathroom_2.jpg","","","","",""
"","","","","","image-keyboard-response","41","2.0.0","161115","panu1747hap","cheetah","null","stimuli/gym_51.jpg","null","gym","B","non-repeat","null","31","stimuli/gym_51.jpg","","","","",""
"","","","","","image-keyboard-response","42","2.0.0","162119","panu1747hap","cheetah","null","stimuli/field_43.jpg","null","field","C","non-repeat","null","32","stimuli/field_43.jpg","","","","",""
"","","","","","image-keyboard-response","43","2.0.0","163123","panu1747hap","cheetah","523","stimuli/field_43.jpg"," ","field","C","repeat"," ","32","","","","","",""
"","","","","","image-keyboard-response","44","2.0.0","164127","panu1747hap","cheetah","null","stimuli/playground_60.jpg","null","playground","G","non-repeat","null","33","stimuli/playground_60.jpg","","","","",""
"","","","","","image-keyboard-response","45","2.0.0","165131","panu1747hap","cheetah","null","stimuli/stream_2.jpg","null","stream","H","non-repeat","null","34","stimuli/stream_2.jpg","","","","",""
"","","","","","image-keyboard-response","46","2.0.0","166134","panu1747hap","cheetah","null","stimuli/bridge_12.jpg","null","bridge","I","non-repeat","null","35","stimuli/bridge_12.jpg","","","","",""
"","","","","","image-keyboard-response","47","2.0.0","167136","panu1747hap","cheetah","590","stimuli/bridge_12.jpg"," ","bridge","I","repeat"," ","35","","","","","",""
"","","","","","image-keyboard-response","48","2.0.0","168139","panu1747hap","cheetah","null","stimuli/bar_9.jpg","null","bar","J","non-repeat","null","36","stimuli/bar_9.jpg","","","","",""
"","","","","","image-keyboard-response","49","2.0.0","169143","panu1747hap","cheetah","null","stimuli/kitchen_46.jpg","null","kitchen","K","non-repeat","null","37","stimuli/kitchen_46.jpg","","","","",""
"","","","","","image-keyboard-response","50","2.0.0","170146","panu1747hap","cheetah","null","stimuli/street_47.jpg","null","street","L","non-repeat","null","38","stimuli/street_47.jpg","","","","",""
"","","","","","image-keyboard-response","51","2.0.0","171150","panu1747hap","cheetah","null","stimuli/playground_60.jpg","null","playground","G","non-repeat","null","39","stimuli/playground_60.jpg","","","","",""
"","","","","","image-keyboard-response","52","2.0.0","172155","panu1747hap","cheetah","null","stimuli/stream_2.jpg","null","stream","H","non-repeat","null","40","stimuli/stream_2.jpg","","","","",""
"","","","","","image-keyboard-response","53","2.0.0","173158","panu1747hap","cheetah","null","stimuli/bridge_12.jpg","null","bridge","I","non-repeat","null","41","stimuli/bridge_12.jpg","","","","",""
"","","","","","image-keyboard-response","54","2.0.0","174161","panu1747hap","cheetah","null","stimuli/woods_21.jpg","null","woods","D","non-repeat","null","42","stimuli/woods_21.jpg","","","","",""
"","","","","","image-keyboard-response","55","2.0.0","175164","panu1747hap","cheetah","664","stimuli/woods_21.jpg"," ","woods","D","repeat"," ","42","","","","","",""
"","","","","","image-keyboard-response","56","2.0.0","176167","panu1747hap","cheetah","null","stimuli/desert_36.jpg","null","desert","E","non-repeat","null","43","stimuli/desert_36.jpg","","","","",""
"","","","","","image-keyboard-response","57","2.0.0","177171","panu1747hap","cheetah","null","stimuli/coast_38.jpg","null","coast","F","non-repeat","null","44","stimuli/coast_38.jpg","","","","",""
"","","","","","image-keyboard-response","58","2.0.0","178175","panu1747hap","cheetah","null","stimuli/playground_60.jpg","null","playground","G","non-repeat","null","45","stimuli/playground_60.jpg","","","","",""
"","","","","","image-keyboard-response","59","2.0.0","179179","panu1747hap","cheetah","534","stimuli/playground_60.jpg"," ","playground","G","repeat"," ","45","","","","","",""
"","","","","","image-keyboard-response","60","2.0.0","180183","panu1747hap","cheetah","null","stimuli/stream_2.jpg","null","stream","H","non-repeat","null","46","stimuli/stream_2.jpg","","","","",""
"","","","","","image-keyboard-response","61","2.0.0","181187","panu1747hap","cheetah","null","stimuli/bridge_12.jpg","null","bridge","I","non-repeat","null","47","stimuli/bridge_12.jpg","","","","",""
"","","","","","image-keyboard-response","62","2.0.0","182191","panu1747hap","cheetah","null","stimuli/woods_21.jpg","null","woods","D","non-repeat","null","48","stimuli/woods_21.jpg","","","","",""
"","","","","","image-keyboard-response","63","2.0.0","183195","panu1747hap","cheetah","null","stimuli/desert_36.jpg","null","desert","E","non-repeat","null","49","stimuli/desert_36.jpg","","","","",""
"","","","","","image-keyboard-response","64","2.0.0","184199","panu1747hap","cheetah","null","stimuli/coast_38.jpg","null","coast","F","non-repeat","null","50","stimuli/coast_38.jpg","","","","",""
"","","","","","image-keyboard-response","65","2.0.0","185202","panu1747hap","cheetah","null","stimuli/playground_60.jpg","null","playground","G","non-repeat","null","51","stimuli/playground_60.jpg","","","","",""
"","","","","","image-keyboard-response","66","2.0.0","186206","panu1747hap","cheetah","null","stimuli/stream_2.jpg","null","stream","H","non-repeat","null","52","stimuli/stream_2.jpg","","","","",""
"","","","","","image-keyboard-response","67","2.0.0","187209","panu1747hap","cheetah","null","stimuli/bridge_12.jpg","null","bridge","I","non-repeat","null","53","stimuli/bridge_12.jpg","","","","",""
"","","","","","image-keyboard-response","68","2.0.0","188211","panu1747hap","cheetah","null","stimuli/woods_21.jpg","null","woods","D","non-repeat","null","54","stimuli/woods_21.jpg","","","","",""
"","","","","","image-keyboard-response","69","2.0.0","189215","panu1747hap","cheetah","null","stimuli/desert_36.jpg","null","desert","E","non-repeat","null","55","stimuli/desert_36.jpg","","","","",""
"","","","","","image-keyboard-response","70","2.0.0","190219","panu1747hap","cheetah","null","stimuli/coast_38.jpg","null","coast","F","non-repeat","null","56","stimuli/coast_38.jpg","","","","",""
"","","","","","image-keyboard-response","71","2.0.0","191222","panu1747hap","cheetah","null","stimuli/playground_60.jpg","null","playground","G","non-repeat","null","57","stimuli/playground_60.jpg","","","","",""
"","","","","","image-keyboard-response","72","2.0.0","192226","panu1747hap","cheetah","null","stimuli/stream_2.jpg","null","stream","H","non-repeat","null","58","stimuli/stream_2.jpg","","","","",""
"","","","","","image-keyboard-response","73","2.0.0","193229","panu1747hap","cheetah","null","stimuli/bridge_12.jpg","null","bridge","I","non-repeat","null","59","stimuli/bridge_12.jpg","","","","",""
"","","","","","image-keyboard-response","74","2.0.0","194234","panu1747hap","cheetah","null","stimuli/bar_9.jpg","null","bar","J","non-repeat","null","60","stimuli/bar_9.jpg","","","","",""
"","","","","","image-keyboard-response","75","2.0.0","195238","panu1747hap","cheetah","null","stimuli/kitchen_46.jpg","null","kitchen","K","non-repeat","null","61","stimuli/kitchen_46.jpg","","","","",""
"","","","","","image-keyboard-response","76","2.0.0","196242","panu1747hap","cheetah","null","stimuli/street_47.jpg","null","street","L","non-repeat","null","62","stimuli/street_47.jpg","","","","",""
"","","","","","image-keyboard-response","77","2.0.0","197245","panu1747hap","cheetah","771","stimuli/street_47.jpg"," ","street","L","repeat"," ","62","","","","","",""
"","","","","","image-keyboard-response","78","2.0.0","198249","panu1747hap","cheetah","null","stimuli/woods_21.jpg","null","woods","D","non-repeat","null","63","stimuli/woods_21.jpg","","","","",""
"","","","","","image-keyboard-response","79","2.0.0","199252","panu1747hap","cheetah","null","stimuli/desert_36.jpg","null","desert","E","non-repeat","null","64","stimuli/desert_36.jpg","","","","",""
"","","","","","image-keyboard-response","80","2.0.0","200256","panu1747hap","cheetah","null","stimuli/coast_38.jpg","null","coast","F","non-repeat","null","65","stimuli/coast_38.jpg","","","","",""
"","","","","","image-keyboard-response","81","2.0.0","201259","panu1747hap","cheetah","761","stimuli/coast_38.jpg"," ","coast","F","repeat"," ","65","","","","","",""
"","","","","","image-keyboard-response","82","2.0.0","202262","panu1747hap","cheetah","null","stimuli/playground_60.jpg","null","playground","G","non-repeat","null","66","stimuli/playground_60.jpg","","","","",""
"","","","","","image-keyboard-response","83","2.0.0","203265","panu1747hap","cheetah","751","stimuli/playground_60.jpg"," ","playground","G","repeat"," ","66","","","","","",""
"","","","","","image-keyboard-response","84","2.0.0","204269","panu1747hap","cheetah","null","stimuli/stream_2.jpg","null","stream","H","non-repeat","null","67","stimuli/stream_2.jpg","","","","",""
"","","","","","image-keyboard-response","85","2.0.0","205273","panu1747hap","cheetah","null","stimuli/bridge_12.jpg","null","bridge","I","non-repeat","null","68","stimuli/bridge_12.jpg","","","","",""
"","","","","","image-keyboard-response","86","2.0.0","206277","panu1747hap","cheetah","null","stimuli/bar_9.jpg","null","bar","J","non-repeat","null","69","stimuli/bar_9.jpg","","","","",""
"","","","","","image-keyboard-response","87","2.0.0","207282","panu1747hap","cheetah","null","stimuli/kitchen_46.jpg","null","kitchen","K","non-repeat","null","70","stimuli/kitchen_46.jpg","","","","",""
"","","","","","image-keyboard-response","88","2.0.0","208285","panu1747hap","cheetah","null","stimuli/street_47.jpg","null","street","L","non-repeat","null","71","stimuli/street_47.jpg","","","","",""
"","","","","","image-keyboard-response","89","2.0.0","209288","panu1747hap","cheetah","null","stimuli/woods_21.jpg","null","woods","D","non-repeat","null","72","stimuli/woods_21.jpg","","","","",""
"","","","","","image-keyboard-response","90","2.0.0","210297","panu1747hap","cheetah","null","stimuli/desert_36.jpg","null","desert","E","non-repeat","null","73","stimuli/desert_36.jpg","","","","",""
"","","","","","image-keyboard-response","91","2.0.0","211301","panu1747hap","cheetah","null","stimuli/coast_38.jpg","null","coast","F","non-repeat","null","74","stimuli/coast_38.jpg","","","","",""
"","","","","","image-keyboard-response","92","2.0.0","212305","panu1747hap","cheetah","843","stimuli/coast_38.jpg"," ","coast","F","repeat"," ","74","","","","","",""
"","","","","","image-keyboard-response","93","2.0.0","213308","panu1747hap","cheetah","null","stimuli/bar_9.jpg","null","bar","J","non-repeat","null","75","stimuli/bar_9.jpg","","","","",""
"","","","","","image-keyboard-response","94","2.0.0","214312","panu1747hap","cheetah","null","stimuli/kitchen_46.jpg","null","kitchen","K","non-repeat","null","76","stimuli/kitchen_46.jpg","","","","",""
"","","","","","image-keyboard-response","95","2.0.0","215315","panu1747hap","cheetah","null","stimuli/street_47.jpg","null","street","L","non-repeat","null","77","stimuli/street_47.jpg","","","","",""
"","","","","","image-keyboard-response","96","2.0.0","216319","panu1747hap","cheetah","null","stimuli/woods_21.jpg","null","woods","D","non-repeat","null","78","stimuli/woods_21.jpg","","","","",""
"","","","","","image-keyboard-response","97","2.0.0","217323","panu1747hap","cheetah","631","stimuli/woods_21.jpg"," ","woods","D","repeat"," ","78","","","","","",""
"","","","","","image-keyboard-response","98","2.0.0","218327","panu1747hap","cheetah","null","stimuli/desert_36.jpg","null","desert","E","non-repeat","null","79","stimuli/desert_36.jpg","","","","",""
"","","","","","image-keyboard-response","99","2.0.0","219330","panu1747hap","cheetah","null","stimuli/coast_38.jpg","null","coast","F","non-repeat","null","80","stimuli/coast_38.jpg","","","","",""
"","","","","","image-keyboard-response","100","2.0.0","220335","panu1747hap","cheetah","null","stimuli/bar_9.jpg","null","bar","J","non-repeat","null","81","stimuli/bar_9.jpg","","","","",""
"","","","","","image-keyboard-response","101","2.0.0","221339","panu1747hap","cheetah","739","stimuli/bar_9.jpg"," ","bar","J","repeat"," ","81","","","","","",""
"","","","","","image-keyboard-response","102","2.0.0","222343","panu1747hap","cheetah","null","stimuli/kitchen_46.jpg","null","kitchen","K","non-repeat","null","82","stimuli/kitchen_46.jpg","","","","",""
"","","","","","image-keyboard-response","103","2.0.0","223347","panu1747hap","cheetah","null","stimuli/street_47.jpg","null","street","L","non-repeat","null","83","stimuli/street_47.jpg","","","","",""
"","","","","","image-keyboard-response","104","2.0.0","224351","panu1747hap","cheetah","null","stimuli/bathroom_2.jpg","null","bathroom","A","non-repeat","null","84","stimuli/bathroom_2.jpg","","","","",""
"","","","","","image-keyboard-response","105","2.0.0","225354","panu1747hap","cheetah","697","stimuli/bathroom_2.jpg"," ","bathroom","A","repeat"," ","84","","","","","",""
"","","","","","image-keyboard-response","106","2.0.0","226357","panu1747hap","cheetah","null","stimuli/gym_51.jpg","null","gym","B","non-repeat","null","85","stimuli/gym_51.jpg","","","","",""
"","","","","","image-keyboard-response","107","2.0.0","227360","panu1747hap","cheetah","null","stimuli/field_43.jpg","null","field","C","non-repeat","null","86","stimuli/field_43.jpg","","","","",""
"","","","","","image-keyboard-response","108","2.0.0","228365","panu1747hap","cheetah","718","stimuli/field_43.jpg"," ","field","C","repeat"," ","86","","","","","",""
"","","","","","image-keyboard-response","109","2.0.0","229369","panu1747hap","cheetah","null","stimuli/playground_60.jpg","null","playground","G","non-repeat","null","87","stimuli/playground_60.jpg","","","","",""
"","","","","","image-keyboard-response","110","2.0.0","230372","panu1747hap","cheetah","null","stimuli/stream_2.jpg","null","stream","H","non-repeat","null","88","stimuli/stream_2.jpg","","","","",""
"","","","","","image-keyboard-response","111","2.0.0","231376","panu1747hap","cheetah","null","stimuli/bridge_12.jpg","null","bridge","I","non-repeat","null","89","stimuli/bridge_12.jpg","","","","",""
"","","","","","image-keyboard-response","112","2.0.0","232380","panu1747hap","cheetah","null","stimuli/bar_9.jpg","null","bar","J","non-repeat","null","90","stimuli/bar_9.jpg","","","","",""
"","","","","","image-keyboard-response","113","2.0.0","233383","panu1747hap","cheetah","null","stimuli/kitchen_46.jpg","null","kitchen","K","non-repeat","null","91","stimuli/kitchen_46.jpg","","","","",""
"","","","","","image-keyboard-response","114","2.0.0","234387","panu1747hap","cheetah","null","stimuli/street_47.jpg","null","street","L","non-repeat","null","92","stimuli/street_47.jpg","","","","",""
"","","","","","image-keyboard-response","115","2.0.0","235391","panu1747hap","cheetah","null","stimuli/playground_60.jpg","null","playground","G","non-repeat","null","93","stimuli/playground_60.jpg","","","","",""
"","","","","","image-keyboard-response","116","2.0.0","236395","panu1747hap","cheetah","null","stimuli/stream_2.jpg","null","stream","H","non-repeat","null","94","stimuli/stream_2.jpg","","","","",""
"","","","","","image-keyboard-response","117","2.0.0","237400","panu1747hap","cheetah","null","stimuli/bridge_12.jpg","null","bridge","I","non-repeat","null","95","stimuli/bridge_12.jpg","","","","",""
"","","","","","image-keyboard-response","118","2.0.0","238403","panu1747hap","cheetah","null","stimuli/bathroom_2.jpg","null","bathroom","A","non-repeat","null","96","stimuli/bathroom_2.jpg","","","","",""
"","","","","","image-keyboard-response","119","2.0.0","239408","panu1747hap","cheetah","777","stimuli/bathroom_2.jpg"," ","bathroom","A","repeat"," ","96","","","","","",""
"","","","","","image-keyboard-response","120","2.0.0","240411","panu1747hap","cheetah","null","stimuli/gym_51.jpg","null","gym","B","non-repeat","null","97","stimuli/gym_51.jpg","","","","",""
"","","","","","image-keyboard-response","121","2.0.0","241415","panu1747hap","cheetah","null","stimuli/field_43.jpg","null","field","C","non-repeat","null","98","stimuli/field_43.jpg","","","","",""
"","","","","","image-keyboard-response","122","2.0.0","242419","panu1747hap","cheetah","null","stimuli/bar_9.jpg","null","bar","J","non-repeat","null","99","stimuli/bar_9.jpg","","","","",""
"","","","","","image-keyboard-response","123","2.0.0","243423","panu1747hap","cheetah","null","stimuli/kitchen_46.jpg","null","kitchen","K","non-repeat","null","100","stimuli/kitchen_46.jpg","","","","",""
"","","","","","image-keyboard-response","124","2.0.0","244426","panu1747hap","cheetah","null","stimuli/street_47.jpg","null","street","L","non-repeat","null","101","stimuli/street_47.jpg","","","","",""
"","","","","","image-keyboard-response","125","2.0.0","245430","panu1747hap","cheetah","null","stimuli/bathroom_2.jpg","null","bathroom","A","non-repeat","null","102","stimuli/bathroom_2.jpg","","","","",""
"","","","","","image-keyboard-response","126","2.0.0","246434","panu1747hap","cheetah","null","stimuli/gym_51.jpg","null","gym","B","non-repeat","null","103","stimuli/gym_51.jpg","","","","",""
"","","","","","image-keyboard-response","127","2.0.0","247438","panu1747hap","cheetah","null","stimuli/field_43.jpg","null","field","C","non-repeat","null","104","stimuli/field_43.jpg","","","","",""
"","","","","","image-keyboard-response","128","2.0.0","248441","panu1747hap","cheetah","null","stimuli/woods_21.jpg","null","woods","D","non-repeat","null","105","stimuli/woods_21.jpg","","","","",""
"","","","","","image-keyboard-response","129","2.0.0","249445","panu1747hap","cheetah","744","stimuli/woods_21.jpg"," ","woods","D","repeat"," ","105","","","","","",""
"","","","","","image-keyboard-response","130","2.0.0","250449","panu1747hap","cheetah","null","stimuli/desert_36.jpg","null","desert","E","non-repeat","null","106","stimuli/desert_36.jpg","","","","",""
"","","","","","image-keyboard-response","131","2.0.0","251453","panu1747hap","cheetah","null","stimuli/coast_38.jpg","null","coast","F","non-repeat","null","107","stimuli/coast_38.jpg","","","","",""
"","","","","","image-keyboard-response","132","2.0.0","252458","panu1747hap","cheetah","null","stimuli/coast_38.jpg","null","coast","F","repeat"," ","107","","","","","",""
"","","","","","image-keyboard-response","133","2.0.0","253462","panu1747hap","cheetah","null","stimuli/playground_60.jpg","null","playground","G","non-repeat","null","108","stimuli/playground_60.jpg","","","","",""
"","","","","","image-keyboard-response","134","2.0.0","254466","panu1747hap","cheetah","null","stimuli/stream_2.jpg","null","stream","H","non-repeat","null","109","stimuli/stream_2.jpg","","","","",""
"","","","","","image-keyboard-response","135","2.0.0","255471","panu1747hap","cheetah","null","stimuli/bridge_12.jpg","null","bridge","I","non-repeat","null","110","stimuli/bridge_12.jpg","","","","",""
"","","","","","image-keyboard-response","136","2.0.0","256475","panu1747hap","cheetah","null","stimuli/bar_9.jpg","null","bar","J","non-repeat","null","111","stimuli/bar_9.jpg","","","","",""
"","","","","","image-keyboard-response","137","2.0.0","257480","panu1747hap","cheetah","null","stimuli/kitchen_46.jpg","null","kitchen","K","non-repeat","null","112","stimuli/kitchen_46.jpg","","","","",""
"","","","","","image-keyboard-response","138","2.0.0","258483","panu1747hap","cheetah","null","stimuli/street_47.jpg","null","street","L","non-repeat","null","113","stimuli/street_47.jpg","","","","",""
"","","","","","image-keyboard-response","139","2.0.0","259487","panu1747hap","cheetah","null","stimuli/woods_21.jpg","null","woods","D","non-repeat","null","114","stimuli/woods_21.jpg","","","","",""
"","","","","","image-keyboard-response","140","2.0.0","260489","panu1747hap","cheetah","485","stimuli/woods_21.jpg"," ","woods","D","repeat"," ","114","","","","","",""
"","","","","","image-keyboard-response","141","2.0.0","261493","panu1747hap","cheetah","null","stimuli/desert_36.jpg","null","desert","E","non-repeat","null","115","stimuli/desert_36.jpg","","","","",""
"","","","","","image-keyboard-response","142","2.0.0","262498","panu1747hap","cheetah","null","stimuli/coast_38.jpg","null","coast","F","non-repeat","null","116","stimuli/coast_38.jpg","","","","",""
"","","","","","image-keyboard-response","143","2.0.0","263502","panu1747hap","cheetah","null","stimuli/bathroom_2.jpg","null","bathroom","A","non-repeat","null","117","stimuli/bathroom_2.jpg","","","","",""
"","","","","","image-keyboard-response","144","2.0.0","264506","panu1747hap","cheetah","null","stimuli/gym_51.jpg","null","gym","B","non-repeat","null","118","stimuli/gym_51.jpg","","","","",""
"","","","","","image-keyboard-response","145","2.0.0","265508","panu1747hap","cheetah","null","stimuli/field_43.jpg","null","field","C","non-repeat","null","119","stimuli/field_43.jpg","","","","",""
"","","","","","image-keyboard-response","146","2.0.0","266511","panu1747hap","cheetah","null","stimuli/woods_21.jpg","null","woods","D","non-repeat","null","120","stimuli/woods_21.jpg","","","","",""
"","","","","","image-keyboard-response","147","2.0.0","267516","panu1747hap","cheetah","null","stimuli/desert_36.jpg","null","desert","E","non-repeat","null","121","stimuli/desert_36.jpg","","","","",""
"","","","","","image-keyboard-response","148","2.0.0","268520","panu1747hap","cheetah","null","stimuli/coast_38.jpg","null","coast","F","non-repeat","null","122","stimuli/coast_38.jpg","","","","",""
"","","","","","image-keyboard-response","149","2.0.0","269524","panu1747hap","cheetah","663","stimuli/coast_38.jpg"," ","coast","F","repeat"," ","122","","","","","",""
"","","","","","image-keyboard-response","150","2.0.0","270528","panu1747hap","cheetah","null","stimuli/bar_9.jpg","null","bar","J","non-repeat","null","123","stimuli/bar_9.jpg","","","","",""
"","","","","","image-keyboard-response","151","2.0.0","271531","panu1747hap","cheetah","null","stimuli/kitchen_46.jpg","null","kitchen","K","non-repeat","null","124","stimuli/kitchen_46.jpg","","","","",""
"","","","","","image-keyboard-response","152","2.0.0","272535","panu1747hap","cheetah","null","stimuli/street_47.jpg","null","street","L","non-repeat","null","125","stimuli/street_47.jpg","","","","",""
"","","","","","image-keyboard-response","153","2.0.0","273539","panu1747hap","cheetah","null","stimuli/woods_21.jpg","null","woods","D","non-repeat","null","126","stimuli/woods_21.jpg","","","","",""
"","","","","","image-keyboard-response","154","2.0.0","274543","panu1747hap","cheetah","null","stimuli/desert_36.jpg","null","desert","E","non-repeat","null","127","stimuli/desert_36.jpg","","","","",""
"","","","","","image-keyboard-response","155","2.0.0","275546","panu1747hap","cheetah","null","stimuli/coast_38.jpg","null","coast","F","non-repeat","null","128","stimuli/coast_38.jpg","","","","",""
"","","","","","image-keyboard-response","156","2.0.0","276550","panu1747hap","cheetah","null","stimuli/bathroom_2.jpg","null","bathroom","A","non-repeat","null","129","stimuli/bathroom_2.jpg","","","","",""
"","","","","","image-keyboard-response","157","2.0.0","277554","panu1747hap","cheetah","820","stimuli/bathroom_2.jpg"," ","bathroom","A","repeat"," ","129","","","","","",""
"","","","","","image-keyboard-response","158","2.0.0","278559","panu1747hap","cheetah","null","stimuli/gym_51.jpg","null","gym","B","non-repeat","null","130","stimuli/gym_51.jpg","","","","",""
"","","","","","image-keyboard-response","159","2.0.0","279562","panu1747hap","cheetah","null","stimuli/field_43.jpg","null","field","C","non-repeat","null","131","stimuli/field_43.jpg","","","","",""
"","","","","","image-keyboard-response","160","2.0.0","280565","panu1747hap","cheetah","null","stimuli/woods_21.jpg","null","woods","D","non-repeat","null","132","stimuli/woods_21.jpg","","","","",""
"","","","","","image-keyboard-response","161","2.0.0","281569","panu1747hap","cheetah","481","stimuli/woods_21.jpg"," ","woods","D","repeat"," ","132","","","","","",""
"","","","","","image-keyboard-response","162","2.0.0","282572","panu1747hap","cheetah","null","stimuli/desert_36.jpg","null","desert","E","non-repeat","null","133","stimuli/desert_36.jpg","","","","",""
"","","","","","image-keyboard-response","163","2.0.0","283577","panu1747hap","cheetah","null","stimuli/coast_38.jpg","null","coast","F","non-repeat","null","134","stimuli/coast_38.jpg","","","","",""
"","","","","","image-keyboard-response","164","2.0.0","284580","panu1747hap","cheetah","null","stimuli/bar_9.jpg","null","bar","J","non-repeat","null","135","stimuli/bar_9.jpg","","","","",""
"","","","","","image-keyboard-response","165","2.0.0","285584","panu1747hap","cheetah","null","stimuli/kitchen_46.jpg","null","kitchen","K","non-repeat","null","136","stimuli/kitchen_46.jpg","","","","",""
"","","","","","image-keyboard-response","166","2.0.0","286588","panu1747hap","cheetah","null","stimuli/street_47.jpg","null","street","L","non-repeat","null","137","stimuli/street_47.jpg","","","","",""
"","","","","","image-keyboard-response","167","2.0.0","287592","panu1747hap","cheetah","null","stimuli/bathroom_2.jpg","null","bathroom","A","non-repeat","null","138","stimuli/bathroom_2.jpg","","","","",""
"","","","","","image-keyboard-response","168","2.0.0","288596","panu1747hap","cheetah","null","stimuli/gym_51.jpg","null","gym","B","non-repeat","null","139","stimuli/gym_51.jpg","","","","",""
"","","","","","image-keyboard-response","169","2.0.0","289600","panu1747hap","cheetah","null","stimuli/field_43.jpg","null","field","C","non-repeat","null","140","stimuli/field_43.jpg","","","","",""
"","","","","","image-keyboard-response","170","2.0.0","290604","panu1747hap","cheetah","null","stimuli/bar_9.jpg","null","bar","J","non-repeat","null","141","stimuli/bar_9.jpg","","","","",""
"","","","","","image-keyboard-response","171","2.0.0","291608","panu1747hap","cheetah","539","stimuli/bar_9.jpg"," ","bar","J","repeat"," ","141","","","","","",""
"","","","","","image-keyboard-response","172","2.0.0","292612","panu1747hap","cheetah","null","stimuli/kitchen_46.jpg","null","kitchen","K","non-repeat","null","142","stimuli/kitchen_46.jpg","","","","",""
"","","","","","image-keyboard-response","173","2.0.0","293615","panu1747hap","cheetah","null","stimuli/street_47.jpg","null","street","L","non-repeat","null","143","stimuli/street_47.jpg","","","","",""
"","","","","","image-keyboard-response","174","2.0.0","294619","panu1747hap","cheetah","null","stimuli/playground_60.jpg","null","playground","G","non-repeat","null","144","stimuli/playground_60.jpg","","","","",""
"","","","","","image-keyboard-response","175","2.0.0","295623","panu1747hap","cheetah","null","stimuli/stream_2.jpg","null","stream","H","non-repeat","null","145","stimuli/stream_2.jpg","","","","",""
"","","","","","image-keyboard-response","176","2.0.0","296630","panu1747hap","cheetah","null","stimuli/bridge_12.jpg","null","bridge","I","non-repeat","null","146","stimuli/bridge_12.jpg","","","","",""
"","","","","","image-keyboard-response","177","2.0.0","297634","panu1747hap","cheetah","707","stimuli/bridge_12.jpg"," ","bridge","I","repeat"," ","146","","","","","",""
"","","","","","image-keyboard-response","178","2.0.0","298638","panu1747hap","cheetah","null","stimuli/woods_21.jpg","null","woods","D","non-repeat","null","147","stimuli/woods_21.jpg","","","","",""
"","","","","","image-keyboard-response","179","2.0.0","299642","panu1747hap","cheetah","null","stimuli/desert_36.jpg","null","desert","E","non-repeat","null","148","stimuli/desert_36.jpg","","","","",""
"","","","","","image-keyboard-response","180","2.0.0","300647","panu1747hap","cheetah","null","stimuli/coast_38.jpg","null","coast","F","non-repeat","null","149","stimuli/coast_38.jpg","","","","",""
"","","","","","image-keyboard-response","181","2.0.0","301650","panu1747hap","cheetah","null","stimuli/bar_9.jpg","null","bar","J","non-repeat","null","150","stimuli/bar_9.jpg","","","","",""
"","","","","","image-keyboard-response","182","2.0.0","302653","panu1747hap","cheetah","null","stimuli/kitchen_46.jpg","null","kitchen","K","non-repeat","null","151","stimuli/kitchen_46.jpg","","","","",""
"","","","","","image-keyboard-response","183","2.0.0","303656","panu1747hap","cheetah","null","stimuli/street_47.jpg","null","street","L","non-repeat","null","152","stimuli/street_47.jpg","","","","",""
"","","","","","image-keyboard-response","184","2.0.0","304660","panu1747hap","cheetah","687","stimuli/street_47.jpg"," ","street","L","repeat"," ","152","","","","","",""
"","","","","","image-keyboard-response","185","2.0.0","305664","panu1747hap","cheetah","null","stimuli/playground_60.jpg","null","playground","G","non-repeat","null","153","stimuli/playground_60.jpg","","","","",""
"","","","","","image-keyboard-response","186","2.0.0","306667","panu1747hap","cheetah","null","stimuli/stream_2.jpg","null","stream","H","non-repeat","null","154","stimuli/stream_2.jpg","","","","",""
"","","","","","image-keyboard-response","187","2.0.0","307670","panu1747hap","cheetah","null","stimuli/bridge_12.jpg","null","bridge","I","non-repeat","null","155","stimuli/bridge_12.jpg","","","","",""
"","","","","","image-keyboard-response","188","2.0.0","308673","panu1747hap","cheetah","null","stimuli/bar_9.jpg","null","bar","J","non-repeat","null","156","stimuli/bar_9.jpg","","","","",""
"","","","","","image-keyboard-response","189","2.0.0","309678","panu1747hap","cheetah","null","stimuli/kitchen_46.jpg","null","kitchen","K","non-repeat","null","157","stimuli/kitchen_46.jpg","","","","",""
"","","","","","image-keyboard-response","190","2.0.0","310681","panu1747hap","cheetah","null","stimuli/street_47.jpg","null","street","L","non-repeat","null","158","stimuli/street_47.jpg","","","","",""
"","","","","","image-keyboard-response","191","2.0.0","311685","panu1747hap","cheetah","null","stimuli/playground_60.jpg","null","playground","G","non-repeat","null","159","stimuli/playground_60.jpg","","","","",""
"","","","","","image-keyboard-response","192","2.0.0","312688","panu1747hap","cheetah","null","stimuli/stream_2.jpg","null","stream","H","non-repeat","null","160","stimuli/stream_2.jpg","","","","",""
"","","","","","image-keyboard-response","193","2.0.0","313691","panu1747hap","cheetah","null","stimuli/bridge_12.jpg","null","bridge","I","non-repeat","null","161","stimuli/bridge_12.jpg","","","","",""
"","","","","","image-keyboard-response","194","2.0.0","314696","panu1747hap","cheetah","null","stimuli/bar_9.jpg","null","bar","J","non-repeat","null","162","stimuli/bar_9.jpg","","","","",""
"","","","","","image-keyboard-response","195","2.0.0","315700","panu1747hap","cheetah","null","stimuli/kitchen_46.jpg","null","kitchen","K","non-repeat","null","163","stimuli/kitchen_46.jpg","","","","",""
"","","","","","image-keyboard-response","196","2.0.0","316703","panu1747hap","cheetah","null","stimuli/street_47.jpg","null","street","L","non-repeat","null","164","stimuli/street_47.jpg","","","","",""
"","","","","","image-keyboard-response","197","2.0.0","317707","panu1747hap","cheetah","null","stimuli/woods_21.jpg","null","woods","D","non-repeat","null","165","stimuli/woods_21.jpg","","","","",""
"","","","","","image-keyboard-response","198","2.0.0","318711","panu1747hap","cheetah","null","stimuli/desert_36.jpg","null","desert","E","non-repeat","null","166","stimuli/desert_36.jpg","","","","",""
"","","","","","image-keyboard-response","199","2.0.0","319714","panu1747hap","cheetah","null","stimuli/coast_38.jpg","null","coast","F","non-repeat","null","167","stimuli/coast_38.jpg","","","","",""
"","","","","","image-keyboard-response","200","2.0.0","320719","panu1747hap","cheetah","null","stimuli/playground_60.jpg","null","playground","G","non-repeat","null","168","stimuli/playground_60.jpg","","","","",""
"","","","","","image-keyboard-response","201","2.0.0","321723","panu1747hap","cheetah","null","stimuli/stream_2.jpg","null","stream","H","non-repeat","null","169","stimuli/stream_2.jpg","","","","",""
"","","","","","image-keyboard-response","202","2.0.0","322726","panu1747hap","cheetah","null","stimuli/bridge_12.jpg","null","bridge","I","non-repeat","null","170","stimuli/bridge_12.jpg","","","","",""
"","","","","","image-keyboard-response","203","2.0.0","323730","panu1747hap","cheetah","null","stimuli/bar_9.jpg","null","bar","J","non-repeat","null","171","stimuli/bar_9.jpg","","","","",""
"","","","","","image-keyboard-response","204","2.0.0","324734","panu1747hap","cheetah","null","stimuli/kitchen_46.jpg","null","kitchen","K","non-repeat","null","172","stimuli/kitchen_46.jpg","","","","",""
"","","","","","image-keyboard-response","205","2.0.0","325738","panu1747hap","cheetah","716","stimuli/street_47.jpg"," ","street","L","non-repeat","null","173","stimuli/street_47.jpg","","","","",""
"","","","","","image-keyboard-response","206","2.0.0","326742","panu1747hap","cheetah","null","stimuli/bathroom_2.jpg","null","bathroom","A","non-repeat","null","174","stimuli/bathroom_2.jpg","","","","",""
"","","","","","image-keyboard-response","207","2.0.0","327747","panu1747hap","cheetah","null","stimuli/gym_51.jpg","null","gym","B","non-repeat","null","175","stimuli/gym_51.jpg","","","","",""
"","","","","","image-keyboard-response","208","2.0.0","328750","panu1747hap","cheetah","null","stimuli/field_43.jpg","null","field","C","non-repeat","null","176","stimuli/field_43.jpg","","","","",""
"","","","","","image-keyboard-response","209","2.0.0","329753","panu1747hap","cheetah","null","stimuli/playground_60.jpg","null","playground","G","non-repeat","null","177","stimuli/playground_60.jpg","","","","",""
"","","","","","image-keyboard-response","210","2.0.0","330757","panu1747hap","cheetah","null","stimuli/stream_2.jpg","null","stream","H","non-repeat","null","178","stimuli/stream_2.jpg","","","","",""
"","","","","","image-keyboard-response","211","2.0.0","331761","panu1747hap","cheetah","null","stimuli/bridge_12.jpg","null","bridge","I","non-repeat","null","179","stimuli/bridge_12.jpg","","","","",""
"","","","","","image-keyboard-response","212","2.0.0","332764","panu1747hap","cheetah","null","stimuli/bridge_12.jpg","null","bridge","I","repeat"," ","179","","","","","",""
"","","","","","image-keyboard-response","213","2.0.0","333768","panu1747hap","cheetah","null","stimuli/woods_21.jpg","null","woods","D","non-repeat","null","180","stimuli/woods_21.jpg","","","","",""
"","","","","","image-keyboard-response","214","2.0.0","334773","panu1747hap","cheetah","null","stimuli/desert_36.jpg","null","desert","E","non-repeat","null","181","stimuli/desert_36.jpg","","","","",""
"","","","","","image-keyboard-response","215","2.0.0","335776","panu1747hap","cheetah","null","stimuli/coast_38.jpg","null","coast","F","non-repeat","null","182","stimuli/coast_38.jpg","","","","",""
"","","","","","image-keyboard-response","216","2.0.0","336780","panu1747hap","cheetah","null","stimuli/coast_38.jpg","null","coast","F","repeat"," ","182","","","","","",""
"","","","","","image-keyboard-response","217","2.0.0","337783","panu1747hap","cheetah","null","stimuli/bathroom_2.jpg","null","bathroom","A","non-repeat","null","183","stimuli/bathroom_2.jpg","","","","",""
"","","","","","image-keyboard-response","218","2.0.0","338786","panu1747hap","cheetah","null","stimuli/gym_51.jpg","null","gym","B","non-repeat","null","184","stimuli/gym_51.jpg","","","","",""
"","","","","","image-keyboard-response","219","2.0.0","339790","panu1747hap","cheetah","null","stimuli/field_43.jpg","null","field","C","non-repeat","null","185","stimuli/field_43.jpg","","","","",""
"","","","","","image-keyboard-response","220","2.0.0","340794","panu1747hap","cheetah","null","stimuli/playground_60.jpg","null","playground","G","non-repeat","null","186","stimuli/playground_60.jpg","","","","",""
"","","","","","image-keyboard-response","221","2.0.0","341798","panu1747hap","cheetah","null","stimuli/stream_2.jpg","null","stream","H","non-repeat","null","187","stimuli/stream_2.jpg","","","","",""
"","","","","","image-keyboard-response","222","2.0.0","342802","panu1747hap","cheetah","null","stimuli/bridge_12.jpg","null","bridge","I","non-repeat","null","188","stimuli/bridge_12.jpg","","","","",""
"","","","","","image-keyboard-response","223","2.0.0","343806","panu1747hap","cheetah","602","stimuli/bridge_12.jpg"," ","bridge","I","repeat"," ","188","","","","","",""
"","","","","","image-keyboard-response","224","2.0.0","344809","panu1747hap","cheetah","null","stimuli/bar_9.jpg","null","bar","J","non-repeat","null","189","stimuli/bar_9.jpg","","","","",""
"","","","","","image-keyboard-response","225","2.0.0","345813","panu1747hap","cheetah","null","stimuli/kitchen_46.jpg","null","kitchen","K","non-repeat","null","190","stimuli/kitchen_46.jpg","","","","",""
"","","","","","image-keyboard-response","226","2.0.0","346816","panu1747hap","cheetah","null","stimuli/street_47.jpg","null","street","L","non-repeat","null","191","stimuli/street_47.jpg","","","","",""
"","","","","","image-keyboard-response","227","2.0.0","347821","panu1747hap","cheetah","null","stimuli/bathroom_2.jpg","null","bathroom","A","non-repeat","null","192","stimuli/bathroom_2.jpg","","","","",""
"","","","","","image-keyboard-response","228","2.0.0","348823","panu1747hap","cheetah","533","stimuli/bathroom_2.jpg"," ","bathroom","A","repeat"," ","192","","","","","",""
"","","","","","image-keyboard-response","229","2.0.0","349827","panu1747hap","cheetah","null","stimuli/gym_51.jpg","null","gym","B","non-repeat","null","193","stimuli/gym_51.jpg","","","","",""
"","","","","","image-keyboard-response","230","2.0.0","350831","panu1747hap","cheetah","null","stimuli/field_43.jpg","null","field","C","non-repeat","null","194","stimuli/field_43.jpg","","","","",""
"","","","","","image-keyboard-response","231","2.0.0","351835","panu1747hap","cheetah","628","stimuli/field_43.jpg"," ","field","C","repeat"," ","194","","","","","",""
"","","","","","image-keyboard-response","232","2.0.0","352839","panu1747hap","cheetah","null","stimuli/woods_21.jpg","null","woods","D","non-repeat","null","195","stimuli/woods_21.jpg","","","","",""
"","","","","","image-keyboard-response","233","2.0.0","353843","panu1747hap","cheetah","null","stimuli/woods_21.jpg","null","woods","D","repeat"," ","195","","","","","",""
"","","","","","image-keyboard-response","234","2.0.0","354847","panu1747hap","cheetah","null","stimuli/desert_36.jpg","null","desert","E","non-repeat","null","196","stimuli/desert_36.jpg","","","","",""
"","","","","","image-keyboard-response","235","2.0.0","355850","panu1747hap","cheetah","null","stimuli/coast_38.jpg","null","coast","F","non-repeat","null","197","stimuli/coast_38.jpg","","","","",""
"","","","","","image-keyboard-response","236","2.0.0","356854","panu1747hap","cheetah","null","stimuli/bathroom_2.jpg","null","bathroom","A","non-repeat","null","198","stimuli/bathroom_2.jpg","","","","",""
"","","","","","image-keyboard-response","237","2.0.0","357857","panu1747hap","cheetah","null","stimuli/gym_51.jpg","null","gym","B","non-repeat","null","199","stimuli/gym_51.jpg","","","","",""
"","","","","","image-keyboard-response","238","2.0.0","358861","panu1747hap","cheetah","null","stimuli/field_43.jpg","null","field","C","non-repeat","null","200","stimuli/field_43.jpg","","","","",""
"","","","","","image-keyboard-response","239","2.0.0","359865","panu1747hap","cheetah","null","stimuli/woods_21.jpg","null","woods","D","non-repeat","null","201","stimuli/woods_21.jpg","","","","",""
"","","","","","image-keyboard-response","240","2.0.0","360868","panu1747hap","cheetah","null","stimuli/desert_36.jpg","null","desert","E","non-repeat","null","202","stimuli/desert_36.jpg","","","","",""
"","","","","","image-keyboard-response","241","2.0.0","361872","panu1747hap","cheetah","null","stimuli/coast_38.jpg","null","coast","F","non-repeat","null","203","stimuli/coast_38.jpg","","","","",""
"","","","","","image-keyboard-response","242","2.0.0","362875","panu1747hap","cheetah","null","stimuli/coast_38.jpg","null","coast","F","repeat"," ","203","","","","","",""
"","","","","","image-keyboard-response","243","2.0.0","363879","panu1747hap","cheetah","null","stimuli/bathroom_2.jpg","null","bathroom","A","non-repeat","null","204","stimuli/bathroom_2.jpg","","","","",""
"","","","","","image-keyboard-response","244","2.0.0","364883","panu1747hap","cheetah","null","stimuli/gym_51.jpg","null","gym","B","non-repeat","null","205","stimuli/gym_51.jpg","","","","",""
"","","","","","image-keyboard-response","245","2.0.0","365886","panu1747hap","cheetah","null","stimuli/field_43.jpg","null","field","C","non-repeat","null","206","stimuli/field_43.jpg","","","","",""
"","","","","","image-keyboard-response","246","2.0.0","366889","panu1747hap","cheetah","498","stimuli/field_43.jpg"," ","field","C","repeat"," ","206","","","","","",""
"","","","","","image-keyboard-response","247","2.0.0","367894","panu1747hap","cheetah","null","stimuli/woods_21.jpg","null","woods","D","non-repeat","null","207","stimuli/woods_21.jpg","","","","",""
"","","","","","image-keyboard-response","248","2.0.0","368897","panu1747hap","cheetah","null","stimuli/desert_36.jpg","null","desert","E","non-repeat","null","208","stimuli/desert_36.jpg","","","","",""
"","","","","","image-keyboard-response","249","2.0.0","369901","panu1747hap","cheetah","null","stimuli/coast_38.jpg","null","coast","F","non-repeat","null","209","stimuli/coast_38.jpg","","","","",""
"","","","","","image-keyboard-response","250","2.0.0","370905","panu1747hap","cheetah","null","stimuli/playground_60.jpg","null","playground","G","non-repeat","null","210","stimuli/playground_60.jpg","","","","",""
"","","","","","image-keyboard-response","251","2.0.0","371910","panu1747hap","cheetah","null","stimuli/stream_2.jpg","null","stream","H","non-repeat","null","211","stimuli/stream_2.jpg","","","","",""
"","","","","","image-keyboard-response","252","2.0.0","372914","panu1747hap","cheetah","null","stimuli/bridge_12.jpg","null","bridge","I","non-repeat","null","212","stimuli/bridge_12.jpg","","","","",""
"","","","","","image-keyboard-response","253","2.0.0","373918","panu1747hap","cheetah","null","stimuli/bar_9.jpg","null","bar","J","non-repeat","null","213","stimuli/bar_9.jpg","","","","",""
"","","","","","image-keyboard-response","254","2.0.0","374921","panu1747hap","cheetah","718","stimuli/bar_9.jpg"," ","bar","J","repeat"," ","213","","","","","",""
"","","","","","image-keyboard-response","255","2.0.0","375925","panu1747hap","cheetah","null","stimuli/kitchen_46.jpg","null","kitchen","K","non-repeat","null","214","stimuli/kitchen_46.jpg","","","","",""
"","","","","","image-keyboard-response","256","2.0.0","376928","panu1747hap","cheetah","null","stimuli/street_47.jpg","null","street","L","non-repeat","null","215","stimuli/street_47.jpg","","","","",""
"","","","","","image-keyboard-response","257","2.0.0","377933","panu1747hap","cheetah","null","stimuli/woods_21.jpg","null","woods","D","non-repeat","null","216","stimuli/woods_21.jpg","","","","",""
"","","","","","image-keyboard-response","258","2.0.0","378938","panu1747hap","cheetah","null","stimuli/desert_36.jpg","null","desert","E","non-repeat","null","217","stimuli/desert_36.jpg","","","","",""
"","","","","","image-keyboard-response","259","2.0.0","379941","panu1747hap","cheetah","null","stimuli/coast_38.jpg","null","coast","F","non-repeat","null","218","stimuli/coast_38.jpg","","","","",""
"","","","","","image-keyboard-response","260","2.0.0","380946","panu1747hap","cheetah","null","stimuli/playground_60.jpg","null","playground","G","non-repeat","null","219","stimuli/playground_60.jpg","","","","",""
"","","","","","image-keyboard-response","261","2.0.0","381949","panu1747hap","cheetah","null","stimuli/stream_2.jpg","null","stream","H","non-repeat","null","220","stimuli/stream_2.jpg","","","","",""
"","","","","","image-keyboard-response","262","2.0.0","382954","panu1747hap","cheetah","null","stimuli/bridge_12.jpg","null","bridge","I","non-repeat","null","221","stimuli/bridge_12.jpg","","","","",""
"","","","","","image-keyboard-response","263","2.0.0","383958","panu1747hap","cheetah","null","stimuli/bathroom_2.jpg","null","bathroom","A","non-repeat","null","222","stimuli/bathroom_2.jpg","","","","",""
"","","","","","image-keyboard-response","264","2.0.0","384962","panu1747hap","cheetah","null","stimuli/gym_51.jpg","null","gym","B","non-repeat","null","223","stimuli/gym_51.jpg","","","","",""
"","","","","","image-keyboard-response","265","2.0.0","385966","panu1747hap","cheetah","null","stimuli/field_43.jpg","null","field","C","non-repeat","null","224","stimuli/field_43.jpg","","","","",""
"","","","","","image-keyboard-response","266","2.0.0","386970","panu1747hap","cheetah","null","stimuli/playground_60.jpg","null","playground","G","non-repeat","null","225","stimuli/playground_60.jpg","","","","",""
"","","","","","image-keyboard-response","267","2.0.0","387974","panu1747hap","cheetah","703","stimuli/playground_60.jpg"," ","playground","G","repeat"," ","225","","","","","",""
"","","","","","image-keyboard-response","268","2.0.0","388979","panu1747hap","cheetah","null","stimuli/stream_2.jpg","null","stream","H","non-repeat","null","226","stimuli/stream_2.jpg","","","","",""
"","","","","","image-keyboard-response","269","2.0.0","389983","panu1747hap","cheetah","null","stimuli/bridge_12.jpg","null","bridge","I","non-repeat","null","227","stimuli/bridge_12.jpg","","","","",""
"","","","","","image-keyboard-response","270","2.0.0","390986","panu1747hap","cheetah","645","stimuli/bridge_12.jpg"," ","bridge","I","repeat"," ","227","","","","","",""
"","","","","","image-keyboard-response","271","2.0.0","391989","panu1747hap","cheetah","null","stimuli/woods_21.jpg","null","woods","D","non-repeat","null","228","stimuli/woods_21.jpg","","","","",""
"","","","","","image-keyboard-response","272","2.0.0","392993","panu1747hap","cheetah","null","stimuli/desert_36.jpg","null","desert","E","non-repeat","null","229","stimuli/desert_36.jpg","","","","",""
"","","","","","image-keyboard-response","273","2.0.0","393996","panu1747hap","cheetah","null","stimuli/coast_38.jpg","null","coast","F","non-repeat","null","230","stimuli/coast_38.jpg","","","","",""
"","","","","","image-keyboard-response","274","2.0.0","395000","panu1747hap","cheetah","null","stimuli/playground_60.jpg","null","playground","G","non-repeat","null","231","stimuli/playground_60.jpg","","","","",""
"","","","","","image-keyboard-response","275","2.0.0","396004","panu1747hap","cheetah","577","stimuli/playground_60.jpg"," ","playground","G","repeat"," ","231","","","","","",""
"","","","","","image-keyboard-response","276","2.0.0","397007","panu1747hap","cheetah","null","stimuli/stream_2.jpg","null","stream","H","non-repeat","null","232","stimuli/stream_2.jpg","","","","",""
"","","","","","image-keyboard-response","277","2.0.0","398012","panu1747hap","cheetah","null","stimuli/bridge_12.jpg","null","bridge","I","non-repeat","null","233","stimuli/bridge_12.jpg","","","","",""
"","","","","","image-keyboard-response","278","2.0.0","399016","panu1747hap","cheetah","null","stimuli/woods_21.jpg","null","woods","D","non-repeat","null","234","stimuli/woods_21.jpg","","","","",""
"","","","","","image-keyboard-response","279","2.0.0","400019","panu1747hap","cheetah","null","stimuli/desert_36.jpg","null","desert","E","non-repeat","null","235","stimuli/desert_36.jpg","","","","",""
"","","","","","image-keyboard-response","280","2.0.0","401023","panu1747hap","cheetah","null","stimuli/coast_38.jpg","null","coast","F","non-repeat","null","236","stimuli/coast_38.jpg","","","","",""
"","","","","","image-keyboard-response","281","2.0.0","402027","panu1747hap","cheetah","null","stimuli/bathroom_2.jpg","null","bathroom","A","non-repeat","null","237","stimuli/bathroom_2.jpg","","","","",""
"","","","","","image-keyboard-response","282","2.0.0","403032","panu1747hap","cheetah","null","stimuli/gym_51.jpg","null","gym","B","non-repeat","null","238","stimuli/gym_51.jpg","","","","",""
"","","","","","image-keyboard-response","283","2.0.0","404037","panu1747hap","cheetah","null","stimuli/field_43.jpg","null","field","C","non-repeat","null","239","stimuli/field_43.jpg","","","","",""
"","","","","","image-keyboard-response","284","2.0.0","405041","panu1747hap","cheetah","null","stimuli/woods_21.jpg","null","woods","D","non-repeat","null","240","stimuli/woods_21.jpg","","","","",""
"","","","","","image-keyboard-response","285","2.0.0","406045","panu1747hap","cheetah","null","stimuli/desert_36.jpg","null","desert","E","non-repeat","null","241","stimuli/desert_36.jpg","","","","",""
"","","","","","image-keyboard-response","286","2.0.0","407049","panu1747hap","cheetah","null","stimuli/coast_38.jpg","null","coast","F","non-repeat","null","242","stimuli/coast_38.jpg","","","","",""
"","","","","","image-keyboard-response","287","2.0.0","408053","panu1747hap","cheetah","null","stimuli/bathroom_2.jpg","null","bathroom","A","non-repeat","null","243","stimuli/bathroom_2.jpg","","","","",""
"","","","","","image-keyboard-response","288","2.0.0","409057","panu1747hap","cheetah","null","stimuli/gym_51.jpg","null","gym","B","non-repeat","null","244","stimuli/gym_51.jpg","","","","",""
"","","","","","image-keyboard-response","289","2.0.0","410061","panu1747hap","cheetah","null","stimuli/field_43.jpg","null","field","C","non-repeat","null","245","stimuli/field_43.jpg","","","","",""
"","","","","","image-keyboard-response","290","2.0.0","411065","panu1747hap","cheetah","null","stimuli/playground_60.jpg","null","playground","G","non-repeat","null","246","stimuli/playground_60.jpg","","","","",""
"","","","","","image-keyboard-response","291","2.0.0","412069","panu1747hap","cheetah","null","stimuli/stream_2.jpg","null","stream","H","non-repeat","null","247","stimuli/stream_2.jpg","","","","",""
"","","","","","image-keyboard-response","292","2.0.0","413072","panu1747hap","cheetah","null","stimuli/bridge_12.jpg","null","bridge","I","non-repeat","null","248","stimuli/bridge_12.jpg","","","","",""
"","","","","","image-keyboard-response","293","2.0.0","414076","panu1747hap","cheetah","null","stimuli/bar_9.jpg","null","bar","J","non-repeat","null","249","stimuli/bar_9.jpg","","","","",""
"","","","","","image-keyboard-response","294","2.0.0","415080","panu1747hap","cheetah","null","stimuli/kitchen_46.jpg","null","kitchen","K","non-repeat","null","250","stimuli/kitchen_46.jpg","","","","",""
"","","","","","image-keyboard-response","295","2.0.0","416084","panu1747hap","cheetah","null","stimuli/street_47.jpg","null","street","L","non-repeat","null","251","stimuli/street_47.jpg","","","","",""
"","","","","","image-keyboard-response","296","2.0.0","417089","panu1747hap","cheetah","null","stimuli/woods_21.jpg","null","woods","D","non-repeat","null","252","stimuli/woods_21.jpg","","","","",""
"","","","","","image-keyboard-response","297","2.0.0","418093","panu1747hap","cheetah","null","stimuli/desert_36.jpg","null","desert","E","non-repeat","null","253","stimuli/desert_36.jpg","","","","",""
"","","","","","image-keyboard-response","298","2.0.0","419097","panu1747hap","cheetah","null","stimuli/coast_38.jpg","null","coast","F","non-repeat","null","254","stimuli/coast_38.jpg","","","","",""
"","","","","","image-keyboard-response","299","2.0.0","420101","panu1747hap","cheetah","null","stimuli/playground_60.jpg","null","playground","G","non-repeat","null","255","stimuli/playground_60.jpg","","","","",""
"","","","","","image-keyboard-response","300","2.0.0","421103","panu1747hap","cheetah","null","stimuli/stream_2.jpg","null","stream","H","non-repeat","null","256","stimuli/stream_2.jpg","","","","",""
"","","","","","image-keyboard-response","301","2.0.0","422108","panu1747hap","cheetah","null","stimuli/bridge_12.jpg","null","bridge","I","non-repeat","null","257","stimuli/bridge_12.jpg","","","","",""
"","","","","","image-keyboard-response","302","2.0.0","423111","panu1747hap","cheetah","null","stimuli/bathroom_2.jpg","null","bathroom","A","non-repeat","null","258","stimuli/bathroom_2.jpg","","","","",""
"","","","","","image-keyboard-response","303","2.0.0","424116","panu1747hap","cheetah","null","stimuli/bathroom_2.jpg","null","bathroom","A","repeat"," ","258","","","","","",""
"","","","","","image-keyboard-response","304","2.0.0","425119","panu1747hap","cheetah","null","stimuli/gym_51.jpg","null","gym","B","non-repeat","null","259","stimuli/gym_51.jpg","","","","",""
"","","","","","image-keyboard-response","305","2.0.0","426122","panu1747hap","cheetah","null","stimuli/field_43.jpg","null","field","C","non-repeat","null","260","stimuli/field_43.jpg","","","","",""
"","","","","","image-keyboard-response","306","2.0.0","427125","panu1747hap","cheetah","null","stimuli/bar_9.jpg","null","bar","J","non-repeat","null","261","stimuli/bar_9.jpg","","","","",""
"","","","","","image-keyboard-response","307","2.0.0","428128","panu1747hap","cheetah","null","stimuli/kitchen_46.jpg","null","kitchen","K","non-repeat","null","262","stimuli/kitchen_46.jpg","","","","",""
"","","","","","image-keyboard-response","308","2.0.0","429132","panu1747hap","cheetah","null","stimuli/street_47.jpg","null","street","L","non-repeat","null","263","stimuli/street_47.jpg","","","","",""
"","","","","","image-keyboard-response","309","2.0.0","430137","panu1747hap","cheetah","null","stimuli/woods_21.jpg","null","woods","D","non-repeat","null","264","stimuli/woods_21.jpg","","","","",""
"","","","","","image-keyboard-response","310","2.0.0","431140","panu1747hap","cheetah","null","stimuli/desert_36.jpg","null","desert","E","non-repeat","null","265","stimuli/desert_36.jpg","","","","",""
"","","","","","image-keyboard-response","311","2.0.0","432143","panu1747hap","cheetah","null","stimuli/coast_38.jpg","null","coast","F","non-repeat","null","266","stimuli/coast_38.jpg","","","","",""
"","","","","","image-keyboard-response","312","2.0.0","433147","panu1747hap","cheetah","804","stimuli/coast_38.jpg"," ","coast","F","repeat"," ","266","","","","","",""
"","","","","","image-keyboard-response","313","2.0.0","434151","panu1747hap","cheetah","null","stimuli/playground_60.jpg","null","playground","G","non-repeat","null","267","stimuli/playground_60.jpg","","","","",""
"","","","","","image-keyboard-response","314","2.0.0","435155","panu1747hap","cheetah","null","stimuli/stream_2.jpg","null","stream","H","non-repeat","null","268","stimuli/stream_2.jpg","","","","",""
"","","","","","image-keyboard-response","315","2.0.0","436159","panu1747hap","cheetah","null","stimuli/bridge_12.jpg","null","bridge","I","non-repeat","null","269","stimuli/bridge_12.jpg","","","","",""
"","","","","","image-keyboard-response","316","2.0.0","437164","panu1747hap","cheetah","null","stimuli/bathroom_2.jpg","null","bathroom","A","non-repeat","null","270","stimuli/bathroom_2.jpg","","","","",""
"","","","","","image-keyboard-response","317","2.0.0","438166","panu1747hap","cheetah","748","stimuli/bathroom_2.jpg"," ","bathroom","A","repeat"," ","270","","","","","",""
"","","","","","image-keyboard-response","318","2.0.0","439170","panu1747hap","cheetah","null","stimuli/gym_51.jpg","null","gym","B","non-repeat","null","271","stimuli/gym_51.jpg","","","","",""
"","","","","","image-keyboard-response","319","2.0.0","440174","panu1747hap","cheetah","null","stimuli/field_43.jpg","null","field","C","non-repeat","null","272","stimuli/field_43.jpg","","","","",""
"","","","","","image-keyboard-response","320","2.0.0","441178","panu1747hap","cheetah","null","stimuli/woods_21.jpg","null","woods","D","non-repeat","null","273","stimuli/woods_21.jpg","","","","",""
"","","","","","image-keyboard-response","321","2.0.0","442182","panu1747hap","cheetah","null","stimuli/desert_36.jpg","null","desert","E","non-repeat","null","274","stimuli/desert_36.jpg","","","","",""
"","","","","","image-keyboard-response","322","2.0.0","443186","panu1747hap","cheetah","null","stimuli/coast_38.jpg","null","coast","F","non-repeat","null","275","stimuli/coast_38.jpg","","","","",""
"","","","","","image-keyboard-response","323","2.0.0","444190","panu1747hap","cheetah","null","stimuli/playground_60.jpg","null","playground","G","non-repeat","null","276","stimuli/playground_60.jpg","","","","",""
"","","","","","image-keyboard-response","324","2.0.0","445193","panu1747hap","cheetah","null","stimuli/stream_2.jpg","null","stream","H","non-repeat","null","277","stimuli/stream_2.jpg","","","","",""
"","","","","","image-keyboard-response","325","2.0.0","446198","panu1747hap","cheetah","null","stimuli/bridge_12.jpg","null","bridge","I","non-repeat","null","278","stimuli/bridge_12.jpg","","","","",""
"","","","","","image-keyboard-response","326","2.0.0","447201","panu1747hap","cheetah","null","stimuli/bathroom_2.jpg","null","bathroom","A","non-repeat","null","279","stimuli/bathroom_2.jpg","","","","",""
"","","","","","image-keyboard-response","327","2.0.0","448205","panu1747hap","cheetah","null","stimuli/gym_51.jpg","null","gym","B","non-repeat","null","280","stimuli/gym_51.jpg","","","","",""
"","","","","","image-keyboard-response","328","2.0.0","449210","panu1747hap","cheetah","null","stimuli/field_43.jpg","null","field","C","non-repeat","null","281","stimuli/field_43.jpg","","","","",""
"","","","","","image-keyboard-response","329","2.0.0","450214","panu1747hap","cheetah","null","stimuli/woods_21.jpg","null","woods","D","non-repeat","null","282","stimuli/woods_21.jpg","","","","",""
"","","","","","image-keyboard-response","330","2.0.0","451219","panu1747hap","cheetah","643","stimuli/woods_21.jpg"," ","woods","D","repeat"," ","282","","","","","",""
"","","","","","image-keyboard-response","331","2.0.0","452222","panu1747hap","cheetah","null","stimuli/desert_36.jpg","null","desert","E","non-repeat","null","283","stimuli/desert_36.jpg","","","","",""
"","","","","","image-keyboard-response","332","2.0.0","453226","panu1747hap","cheetah","null","stimuli/coast_38.jpg","null","coast","F","non-repeat","null","284","stimuli/coast_38.jpg","","","","",""
"","","","","","image-keyboard-response","333","2.0.0","454229","panu1747hap","cheetah","null","stimuli/playground_60.jpg","null","playground","G","non-repeat","null","285","stimuli/playground_60.jpg","","","","",""
"","","","","","image-keyboard-response","334","2.0.0","455233","panu1747hap","cheetah","null","stimuli/stream_2.jpg","null","stream","H","non-repeat","null","286","stimuli/stream_2.jpg","","","","",""
"","","","","","image-keyboard-response","335","2.0.0","456237","panu1747hap","cheetah","null","stimuli/bridge_12.jpg","null","bridge","I","non-repeat","null","287","stimuli/bridge_12.jpg","","","","",""
"","","","","","image-keyboard-response","336","2.0.0","457241","panu1747hap","cheetah","null","stimuli/bar_9.jpg","null","bar","J","non-repeat","null","288","stimuli/bar_9.jpg","","","","",""
"","","","","","image-keyboard-response","337","2.0.0","458243","panu1747hap","cheetah","null","stimuli/kitchen_46.jpg","null","kitchen","K","non-repeat","null","289","stimuli/kitchen_46.jpg","","","","",""
"","","","","","image-keyboard-response","338","2.0.0","459248","panu1747hap","cheetah","null","stimuli/street_47.jpg","null","street","L","non-repeat","null","290","stimuli/street_47.jpg","","","","",""
"","","","","","image-keyboard-response","339","2.0.0","460252","panu1747hap","cheetah","608","stimuli/street_47.jpg"," ","street","L","repeat"," ","290","","","","","",""
"","","","","","image-keyboard-response","340","2.0.0","461255","panu1747hap","cheetah","null","stimuli/bathroom_2.jpg","null","bathroom","A","non-repeat","null","291","stimuli/bathroom_2.jpg","","","","",""
"","","","","","image-keyboard-response","341","2.0.0","462259","panu1747hap","cheetah","null","stimuli/gym_51.jpg","null","gym","B","non-repeat","null","292","stimuli/gym_51.jpg","","","","",""
"","","","","","image-keyboard-response","342","2.0.0","463263","panu1747hap","cheetah","null","stimuli/field_43.jpg","null","field","C","non-repeat","null","293","stimuli/field_43.jpg","","","","",""
"","","","","","image-keyboard-response","343","2.0.0","464266","panu1747hap","cheetah","null","stimuli/bar_9.jpg","null","bar","J","non-repeat","null","294","stimuli/bar_9.jpg","","","","",""
"","","","","","image-keyboard-response","344","2.0.0","465269","panu1747hap","cheetah","null","stimuli/kitchen_46.jpg","null","kitchen","K","non-repeat","null","295","stimuli/kitchen_46.jpg","","","","",""
"","","","","","image-keyboard-response","345","2.0.0","466272","panu1747hap","cheetah","null","stimuli/street_47.jpg","null","street","L","non-repeat","null","296","stimuli/street_47.jpg","","","","",""
"","","","","","image-keyboard-response","346","2.0.0","467276","panu1747hap","cheetah","null","stimuli/bathroom_2.jpg","null","bathroom","A","non-repeat","null","297","stimuli/bathroom_2.jpg","","","","",""
"","","","","","image-keyboard-response","347","2.0.0","468280","panu1747hap","cheetah","null","stimuli/gym_51.jpg","null","gym","B","non-repeat","null","298","stimuli/gym_51.jpg","","","","",""
"","","","","","image-keyboard-response","348","2.0.0","469288","panu1747hap","cheetah","null","stimuli/field_43.jpg","null","field","C","non-repeat","null","299","stimuli/field_43.jpg","","","","",""
"","","","","","image-keyboard-response","349","2.0.0","470292","panu1747hap","cheetah","null","stimuli/playground_60.jpg","null","playground","G","non-repeat","null","300","stimuli/playground_60.jpg","","","","",""
"","","","","","image-keyboard-response","350","2.0.0","471295","panu1747hap","cheetah","620","stimuli/playground_60.jpg"," ","playground","G","repeat"," ","300","","","","","",""
"","","","","","image-keyboard-response","351","2.0.0","472299","panu1747hap","cheetah","null","stimuli/stream_2.jpg","null","stream","H","non-repeat","null","301","stimuli/stream_2.jpg","","","","",""
"","","","","","image-keyboard-response","352","2.0.0","473303","panu1747hap","cheetah","null","stimuli/bridge_12.jpg","null","bridge","I","non-repeat","null","302","stimuli/bridge_12.jpg","","","","",""
"","","","","","image-keyboard-response","353","2.0.0","474306","panu1747hap","cheetah","805","stimuli/bridge_12.jpg"," ","bridge","I","repeat"," ","302","","","","","",""
"","","","","","image-keyboard-response","354","2.0.0","475310","panu1747hap","cheetah","null","stimuli/bar_9.jpg","null","bar","J","non-repeat","null","303","stimuli/bar_9.jpg","","","","",""
"","","","","","image-keyboard-response","355","2.0.0","476314","panu1747hap","cheetah","null","stimuli/kitchen_46.jpg","null","kitchen","K","non-repeat","null","304","stimuli/kitchen_46.jpg","","","","",""
"","","","","","image-keyboard-response","356","2.0.0","477319","panu1747hap","cheetah","null","stimuli/street_47.jpg","null","street","L","non-repeat","null","305","stimuli/street_47.jpg","","","","",""
"","","","","","image-keyboard-response","357","2.0.0","478323","panu1747hap","cheetah","null","stimuli/bathroom_2.jpg","null","bathroom","A","non-repeat","null","306","stimuli/bathroom_2.jpg","","","","",""
"","","","","","image-keyboard-response","358","2.0.0","479327","panu1747hap","cheetah","null","stimuli/gym_51.jpg","null","gym","B","non-repeat","null","307","stimuli/gym_51.jpg","","","","",""
"","","","","","image-keyboard-response","359","2.0.0","480331","panu1747hap","cheetah","null","stimuli/field_43.jpg","null","field","C","non-repeat","null","308","stimuli/field_43.jpg","","","","",""
"","","","","","image-keyboard-response","360","2.0.0","481335","panu1747hap","cheetah","null","stimuli/bar_9.jpg","null","bar","J","non-repeat","null","309","stimuli/bar_9.jpg","","","","",""
"","","","","","image-keyboard-response","361","2.0.0","482339","panu1747hap","cheetah","null","stimuli/kitchen_46.jpg","null","kitchen","K","non-repeat","null","310","stimuli/kitchen_46.jpg","","","","",""
"","","","","","image-keyboard-response","362","2.0.0","483344","panu1747hap","cheetah","null","stimuli/street_47.jpg","null","street","L","non-repeat","null","311","stimuli/street_47.jpg","","","","",""
"","","","","","image-keyboard-response","363","2.0.0","484348","panu1747hap","cheetah","null","stimuli/woods_21.jpg","null","woods","D","non-repeat","null","312","stimuli/woods_21.jpg","","","","",""
"","","","","","image-keyboard-response","364","2.0.0","485351","panu1747hap","cheetah","null","stimuli/desert_36.jpg","null","desert","E","non-repeat","null","313","stimuli/desert_36.jpg","","","","",""
"","","","","","image-keyboard-response","365","2.0.0","486355","panu1747hap","cheetah","null","stimuli/coast_38.jpg","null","coast","F","non-repeat","null","314","stimuli/coast_38.jpg","","","","",""
"","","","","","image-keyboard-response","366","2.0.0","487359","panu1747hap","cheetah","null","stimuli/bar_9.jpg","null","bar","J","non-repeat","null","315","stimuli/bar_9.jpg","","","","",""
"","","","","","image-keyboard-response","367","2.0.0","488364","panu1747hap","cheetah","null","stimuli/bar_9.jpg","null","bar","J","repeat"," ","315","","","","","",""
"","","","","","image-keyboard-response","368","2.0.0","489367","panu1747hap","cheetah","null","stimuli/kitchen_46.jpg","null","kitchen","K","non-repeat","null","316","stimuli/kitchen_46.jpg","","","","",""
"","","","","","image-keyboard-response","369","2.0.0","490372","panu1747hap","cheetah","null","stimuli/street_47.jpg","null","street","L","non-repeat","null","317","stimuli/street_47.jpg","","","","",""
"","","","","","image-keyboard-response","370","2.0.0","491375","panu1747hap","cheetah","null","stimuli/bathroom_2.jpg","null","bathroom","A","non-repeat","null","318","stimuli/bathroom_2.jpg","","","","",""
"","","","","","image-keyboard-response","371","2.0.0","492379","panu1747hap","cheetah","null","stimuli/gym_51.jpg","null","gym","B","non-repeat","null","319","stimuli/gym_51.jpg","","","","",""
"","","","","","image-keyboard-response","372","2.0.0","493383","panu1747hap","cheetah","null","stimuli/field_43.jpg","null","field","C","non-repeat","null","320","stimuli/field_43.jpg","","","","",""
"","","","","","image-keyboard-response","373","2.0.0","494386","panu1747hap","cheetah","null","stimuli/field_43.jpg","null","field","C","repeat"," ","320","","","","","",""
"","","","","","image-keyboard-response","374","2.0.0","495390","panu1747hap","cheetah","null","stimuli/bar_9.jpg","null","bar","J","non-repeat","null","321","stimuli/bar_9.jpg","","","","",""
"","","","","","image-keyboard-response","375","2.0.0","496394","panu1747hap","cheetah","null","stimuli/kitchen_46.jpg","null","kitchen","K","non-repeat","null","322","stimuli/kitchen_46.jpg","","","","",""
"","","","","","image-keyboard-response","376","2.0.0","497398","panu1747hap","cheetah","null","stimuli/street_47.jpg","null","street","L","non-repeat","null","323","stimuli/street_47.jpg","","","","",""
"","","","","","image-keyboard-response","377","2.0.0","498401","panu1747hap","cheetah","null","stimuli/bathroom_2.jpg","null","bathroom","A","non-repeat","null","324","stimuli/bathroom_2.jpg","","","","",""
"","","","","","image-keyboard-response","378","2.0.0","499405","panu1747hap","cheetah","null","stimuli/gym_51.jpg","null","gym","B","non-repeat","null","325","stimuli/gym_51.jpg","","","","",""
"","","","","","image-keyboard-response","379","2.0.0","500409","panu1747hap","cheetah","null","stimuli/field_43.jpg","null","field","C","non-repeat","null","326","stimuli/field_43.jpg","","","","",""
"","","","","","image-keyboard-response","380","2.0.0","501414","panu1747hap","cheetah","null","stimuli/playground_60.jpg","null","playground","G","non-repeat","null","327","stimuli/playground_60.jpg","","","","",""
"","","","","","image-keyboard-response","381","2.0.0","502418","panu1747hap","cheetah","null","stimuli/stream_2.jpg","null","stream","H","non-repeat","null","328","stimuli/stream_2.jpg","","","","",""
"","","","","","image-keyboard-response","382","2.0.0","503422","panu1747hap","cheetah","null","stimuli/bridge_12.jpg","null","bridge","I","non-repeat","null","329","stimuli/bridge_12.jpg","","","","",""
"","","","","","image-keyboard-response","383","2.0.0","504426","panu1747hap","cheetah","null","stimuli/bar_9.jpg","null","bar","J","non-repeat","null","330","stimuli/bar_9.jpg","","","","",""
"","","","","","image-keyboard-response","384","2.0.0","505430","panu1747hap","cheetah","null","stimuli/bar_9.jpg","null","bar","J","repeat"," ","330","","","","","",""
"","","","","","image-keyboard-response","385","2.0.0","506434","panu1747hap","cheetah","null","stimuli/kitchen_46.jpg","null","kitchen","K","non-repeat","null","331","stimuli/kitchen_46.jpg","","","","",""
"","","","","","image-keyboard-response","386","2.0.0","507438","panu1747hap","cheetah","null","stimuli/street_47.jpg","null","street","L","non-repeat","null","332","stimuli/street_47.jpg","","","","",""
"","","","","","image-keyboard-response","387","2.0.0","508442","panu1747hap","cheetah","null","stimuli/bathroom_2.jpg","null","bathroom","A","non-repeat","null","333","stimuli/bathroom_2.jpg","","","","",""
"","","","","","image-keyboard-response","388","2.0.0","509446","panu1747hap","cheetah","null","stimuli/gym_51.jpg","null","gym","B","non-repeat","null","334","stimuli/gym_51.jpg","","","","",""
"","","","","","image-keyboard-response","389","2.0.0","510449","panu1747hap","cheetah","null","stimuli/field_43.jpg","null","field","C","non-repeat","null","335","stimuli/field_43.jpg","","","","",""
"","","","","","image-keyboard-response","390","2.0.0","511453","panu1747hap","cheetah","null","stimuli/playground_60.jpg","null","playground","G","non-repeat","null","336","stimuli/playground_60.jpg","","","","",""
"","","","","","image-keyboard-response","391","2.0.0","512457","panu1747hap","cheetah","null","stimuli/stream_2.jpg","null","stream","H","non-repeat","null","337","stimuli/stream_2.jpg","","","","",""
"","","","","","image-keyboard-response","392","2.0.0","513460","panu1747hap","cheetah","null","stimuli/bridge_12.jpg","null","bridge","I","non-repeat","null","338","stimuli/bridge_12.jpg","","","","",""
"","","","","","image-keyboard-response","393","2.0.0","514464","panu1747hap","cheetah","null","stimuli/woods_21.jpg","null","woods","D","non-repeat","null","339","stimuli/woods_21.jpg","","","","",""
"","","","","","image-keyboard-response","394","2.0.0","515467","panu1747hap","cheetah","null","stimuli/desert_36.jpg","null","desert","E","non-repeat","null","340","stimuli/desert_36.jpg","","","","",""
"","","","","","image-keyboard-response","395","2.0.0","516470","panu1747hap","cheetah","null","stimuli/coast_38.jpg","null","coast","F","non-repeat","null","341","stimuli/coast_38.jpg","","","","",""
"","","","","","image-keyboard-response","396","2.0.0","517474","panu1747hap","cheetah","null","stimuli/bathroom_2.jpg","null","bathroom","A","non-repeat","null","342","stimuli/bathroom_2.jpg","","","","",""
"","","","","","image-keyboard-response","397","2.0.0","518479","panu1747hap","cheetah","null","stimuli/gym_51.jpg","null","gym","B","non-repeat","null","343","stimuli/gym_51.jpg","","","","",""
"","","","","","image-keyboard-response","398","2.0.0","519482","panu1747hap","cheetah","null","stimuli/field_43.jpg","null","field","C","non-repeat","null","344","stimuli/field_43.jpg","","","","",""
"","","","","","image-keyboard-response","399","2.0.0","520486","panu1747hap","cheetah","null","stimuli/woods_21.jpg","null","woods","D","non-repeat","null","345","stimuli/woods_21.jpg","","","","",""
"","","","","","image-keyboard-response","400","2.0.0","521490","panu1747hap","cheetah","null","stimuli/desert_36.jpg","null","desert","E","non-repeat","null","346","stimuli/desert_36.jpg","","","","",""
"","","","","","image-keyboard-response","401","2.0.0","522495","panu1747hap","cheetah","null","stimuli/coast_38.jpg","null","coast","F","non-repeat","null","347","stimuli/coast_38.jpg","","","","",""
"","","","","","image-keyboard-response","402","2.0.0","523498","panu1747hap","cheetah","null","stimuli/coast_38.jpg","null","coast","F","repeat"," ","347","","","","","",""
"","","","","","image-keyboard-response","403","2.0.0","524502","panu1747hap","cheetah","null","stimuli/playground_60.jpg","null","playground","G","non-repeat","null","348","stimuli/playground_60.jpg","","","","",""
"","","","","","image-keyboard-response","404","2.0.0","525506","panu1747hap","cheetah","null","stimuli/stream_2.jpg","null","stream","H","non-repeat","null","349","stimuli/stream_2.jpg","","","","",""
"","","","","","image-keyboard-response","405","2.0.0","526510","panu1747hap","cheetah","null","stimuli/bridge_12.jpg","null","bridge","I","non-repeat","null","350","stimuli/bridge_12.jpg","","","","",""
"","","","","","image-keyboard-response","406","2.0.0","527514","panu1747hap","cheetah","null","stimuli/bathroom_2.jpg","null","bathroom","A","non-repeat","null","351","stimuli/bathroom_2.jpg","","","","",""
"","","","","","image-keyboard-response","407","2.0.0","528517","panu1747hap","cheetah","null","stimuli/gym_51.jpg","null","gym","B","non-repeat","null","352","stimuli/gym_51.jpg","","","","",""
"","","","","","image-keyboard-response","408","2.0.0","529521","panu1747hap","cheetah","null","stimuli/field_43.jpg","null","field","C","non-repeat","null","353","stimuli/field_43.jpg","","","","",""
"","","","","","image-keyboard-response","409","2.0.0","530524","panu1747hap","cheetah","null","stimuli/woods_21.jpg","null","woods","D","non-repeat","null","354","stimuli/woods_21.jpg","","","","",""
"","","","","","image-keyboard-response","410","2.0.0","531529","panu1747hap","cheetah","null","stimuli/woods_21.jpg","null","woods","D","repeat"," ","354","","","","","",""
"","","","","","image-keyboard-response","411","2.0.0","532533","panu1747hap","cheetah","null","stimuli/desert_36.jpg","null","desert","E","non-repeat","null","355","stimuli/desert_36.jpg","","","","",""
"","","","","","image-keyboard-response","412","2.0.0","533538","panu1747hap","cheetah","null","stimuli/coast_38.jpg","null","coast","F","non-repeat","null","356","stimuli/coast_38.jpg","","","","",""
"","","","","","image-keyboard-response","413","2.0.0","534542","panu1747hap","cheetah","null","stimuli/playground_60.jpg","null","playground","G","non-repeat","null","357","stimuli/playground_60.jpg","","","","",""
"","","","","","image-keyboard-response","414","2.0.0","535547","panu1747hap","cheetah","null","stimuli/stream_2.jpg","null","stream","H","non-repeat","null","358","stimuli/stream_2.jpg","","","","",""
"","","","","","image-keyboard-response","415","2.0.0","536551","panu1747hap","cheetah","null","stimuli/bridge_12.jpg","null","bridge","I","non-repeat","null","359","stimuli/bridge_12.jpg","","","","",""
"","","","","","image-keyboard-response","416","2.0.0","537555","panu1747hap","cheetah","null","stimuli/woods_21.jpg","null","woods","D","non-repeat","null","360","stimuli/woods_21.jpg","","","","",""
"","","","","","image-keyboard-response","417","2.0.0","538557","panu1747hap","cheetah","null","stimuli/desert_36.jpg","null","desert","E","non-repeat","null","361","stimuli/desert_36.jpg","","","","",""
"","","","","","image-keyboard-response","418","2.0.0","539561","panu1747hap","cheetah","null","stimuli/coast_38.jpg","null","coast","F","non-repeat","null","362","stimuli/coast_38.jpg","","","","",""
"","","","","","image-keyboard-response","419","2.0.0","540566","panu1747hap","cheetah","null","stimuli/playground_60.jpg","null","playground","G","non-repeat","null","363","stimuli/playground_60.jpg","","","","",""
"","","","","","image-keyboard-response","420","2.0.0","541570","panu1747hap","cheetah","null","stimuli/stream_2.jpg","null","stream","H","non-repeat","null","364","stimuli/stream_2.jpg","","","","",""
"","","","","","image-keyboard-response","421","2.0.0","542574","panu1747hap","cheetah","null","stimuli/bridge_12.jpg","null","bridge","I","non-repeat","null","365","stimuli/bridge_12.jpg","","","","",""
"","","","","","image-keyboard-response","422","2.0.0","543578","panu1747hap","cheetah","null","stimuli/woods_21.jpg","null","woods","D","non-repeat","null","366","stimuli/woods_21.jpg","","","","",""
"","","","","","image-keyboard-response","423","2.0.0","544582","panu1747hap","cheetah","null","stimuli/desert_36.jpg","null","desert","E","non-repeat","null","367","stimuli/desert_36.jpg","","","","",""
"","","","","","image-keyboard-response","424","2.0.0","545586","panu1747hap","cheetah","null","stimuli/coast_38.jpg","null","coast","F","non-repeat","null","368","stimuli/coast_38.jpg","","","","",""
"","","","","","image-keyboard-response","425","2.0.0","546590","panu1747hap","cheetah","null","stimuli/bar_9.jpg","null","bar","J","non-repeat","null","369","stimuli/bar_9.jpg","","","","",""
"","","","","","image-keyboard-response","426","2.0.0","547594","panu1747hap","cheetah","null","stimuli/kitchen_46.jpg","null","kitchen","K","non-repeat","null","370","stimuli/kitchen_46.jpg","","","","",""
"","","","","","image-keyboard-response","427","2.0.0","548597","panu1747hap","cheetah","null","stimuli/street_47.jpg","null","street","L","non-repeat","null","371","stimuli/street_47.jpg","","","","",""
"","","","","","image-keyboard-response","428","2.0.0","549600","panu1747hap","cheetah","null","stimuli/bathroom_2.jpg","null","bathroom","A","non-repeat","null","372","stimuli/bathroom_2.jpg","","","","",""
"","","","","","image-keyboard-response","429","2.0.0","550603","panu1747hap","cheetah","null","stimuli/gym_51.jpg","null","gym","B","non-repeat","null","373","stimuli/gym_51.jpg","","","","",""
"","","","","","image-keyboard-response","430","2.0.0","551607","panu1747hap","cheetah","null","stimuli/field_43.jpg","null","field","C","non-repeat","null","374","stimuli/field_43.jpg","","","","",""
"","","","","","image-keyboard-response","431","2.0.0","552611","panu1747hap","cheetah","null","stimuli/woods_21.jpg","null","woods","D","non-repeat","null","375","stimuli/woods_21.jpg","","","","",""
"","","","","","image-keyboard-response","432","2.0.0","553615","panu1747hap","cheetah","null","stimuli/desert_36.jpg","null","desert","E","non-repeat","null","376","stimuli/desert_36.jpg","","","","",""
"","","","","","image-keyboard-response","433","2.0.0","554619","panu1747hap","cheetah","null","stimuli/coast_38.jpg","null","coast","F","non-repeat","null","377","stimuli/coast_38.jpg","","","","",""
"","","","","","image-keyboard-response","434","2.0.0","555628","panu1747hap","cheetah","null","stimuli/bathroom_2.jpg","null","bathroom","A","non-repeat","null","378","stimuli/bathroom_2.jpg","","","","",""
"","","","","","image-keyboard-response","435","2.0.0","556631","panu1747hap","cheetah","null","stimuli/gym_51.jpg","null","gym","B","non-repeat","null","379","stimuli/gym_51.jpg","","","","",""
"","","","","","image-keyboard-response","436","2.0.0","557636","panu1747hap","cheetah","null","stimuli/field_43.jpg","null","field","C","non-repeat","null","380","stimuli/field_43.jpg","","","","",""
"","","","","","image-keyboard-response","437","2.0.0","558639","panu1747hap","cheetah","null","stimuli/playground_60.jpg","null","playground","G","non-repeat","null","381","stimuli/playground_60.jpg","","","","",""
"","","","","","image-keyboard-response","438","2.0.0","559641","panu1747hap","cheetah","null","stimuli/stream_2.jpg","null","stream","H","non-repeat","null","382","stimuli/stream_2.jpg","","","","",""
"","","","","","image-keyboard-response","439","2.0.0","560645","panu1747hap","cheetah","null","stimuli/bridge_12.jpg","null","bridge","I","non-repeat","null","383","stimuli/bridge_12.jpg","","","","",""
"","","","","","image-keyboard-response","440","2.0.0","561647","panu1747hap","cheetah","null","stimuli/bridge_12.jpg","null","bridge","I","repeat"," ","383","","","","","",""
"","","","","","image-keyboard-response","441","2.0.0","562651","panu1747hap","cheetah","null","stimuli/woods_21.jpg","null","woods","D","non-repeat","null","384","stimuli/woods_21.jpg","","","","",""
"","","","","","image-keyboard-response","442","2.0.0","563655","panu1747hap","cheetah","null","stimuli/desert_36.jpg","null","desert","E","non-repeat","null","385","stimuli/desert_36.jpg","","","","",""
"","","","","","image-keyboard-response","443","2.0.0","564658","panu1747hap","cheetah","null","stimuli/coast_38.jpg","null","coast","F","non-repeat","null","386","stimuli/coast_38.jpg","","","","",""
"","","","","","image-keyboard-response","444","2.0.0","565662","panu1747hap","cheetah","null","stimuli/bathroom_2.jpg","null","bathroom","A","non-repeat","null","387","stimuli/bathroom_2.jpg","","","","",""
"","","","","","image-keyboard-response","445","2.0.0","566666","panu1747hap","cheetah","null","stimuli/gym_51.jpg","null","gym","B","non-repeat","null","388","stimuli/gym_51.jpg","","","","",""
"","","","","","image-keyboard-response","446","2.0.0","567670","panu1747hap","cheetah","null","stimuli/field_43.jpg","null","field","C","non-repeat","null","389","stimuli/field_43.jpg","","","","",""
"","","","","","image-keyboard-response","447","2.0.0","568673","panu1747hap","cheetah","null","stimuli/playground_60.jpg","null","playground","G","non-repeat","null","390","stimuli/playground_60.jpg","","","","",""
"","","","","","image-keyboard-response","448","2.0.0","569677","panu1747hap","cheetah","null","stimuli/stream_2.jpg","null","stream","H","non-repeat","null","391","stimuli/stream_2.jpg","","","","",""
"","","","","","image-keyboard-response","449","2.0.0","570681","panu1747hap","cheetah","null","stimuli/bridge_12.jpg","null","bridge","I","non-repeat","null","392","stimuli/bridge_12.jpg","","","","",""
"","","","","","image-keyboard-response","450","2.0.0","571684","panu1747hap","cheetah","null","stimuli/woods_21.jpg","null","woods","D","non-repeat","null","393","stimuli/woods_21.jpg","","","","",""
"","","","","","image-keyboard-response","451","2.0.0","572688","panu1747hap","cheetah","null","stimuli/desert_36.jpg","null","desert","E","non-repeat","null","394","stimuli/desert_36.jpg","","","","",""
"","","","","","image-keyboard-response","452","2.0.0","573691","panu1747hap","cheetah","null","stimuli/coast_38.jpg","null","coast","F","non-repeat","null","395","stimuli/coast_38.jpg","","","","",""
"","","","","","image-keyboard-response","453","2.0.0","574695","panu1747hap","cheetah","null","stimuli/bar_9.jpg","null","bar","J","non-repeat","null","396","stimuli/bar_9.jpg","","","","",""
"","","","","","image-keyboard-response","454","2.0.0","575699","panu1747hap","cheetah","669","stimuli/kitchen_46.jpg"," ","kitchen","K","non-repeat","null","397","stimuli/kitchen_46.jpg","","","","",""
"","","","","","image-keyboard-response","455","2.0.0","576702","panu1747hap","cheetah","null","stimuli/street_47.jpg","null","street","L","non-repeat","null","398","stimuli/street_47.jpg","","","","",""
"","","","","","image-keyboard-response","456","2.0.0","577706","panu1747hap","cheetah","null","stimuli/playground_60.jpg","null","playground","G","non-repeat","null","399","stimuli/playground_60.jpg","","","","",""
"","","","","","image-keyboard-response","457","2.0.0","578710","panu1747hap","cheetah","null","stimuli/stream_2.jpg","null","stream","H","non-repeat","null","400","stimuli/stream_2.jpg","","","","",""
"","","","","","image-keyboard-response","458","2.0.0","579714","panu1747hap","cheetah","null","stimuli/bridge_12.jpg","null","bridge","I","non-repeat","null","401","stimuli/bridge_12.jpg","","","","",""
"","","","","","image-keyboard-response","459","2.0.0","580717","panu1747hap","cheetah","null","stimuli/woods_21.jpg","null","woods","D","non-repeat","null","402","stimuli/woods_21.jpg","","","","",""
"","","","","","image-keyboard-response","460","2.0.0","581720","panu1747hap","cheetah","574","stimuli/woods_21.jpg"," ","woods","D","repeat"," ","402","","","","","",""
"","","","","","image-keyboard-response","461","2.0.0","582723","panu1747hap","cheetah","null","stimuli/desert_36.jpg","null","desert","E","non-repeat","null","403","stimuli/desert_36.jpg","","","","",""
"","","","","","image-keyboard-response","462","2.0.0","583727","panu1747hap","cheetah","null","stimuli/coast_38.jpg","null","coast","F","non-repeat","null","404","stimuli/coast_38.jpg","","","","",""
"","","","","","image-keyboard-response","463","2.0.0","584729","panu1747hap","cheetah","null","stimuli/bar_9.jpg","null","bar","J","non-repeat","null","405","stimuli/bar_9.jpg","","","","",""
"","","","","","image-keyboard-response","464","2.0.0","585733","panu1747hap","cheetah","null","stimuli/kitchen_46.jpg","null","kitchen","K","non-repeat","null","406","stimuli/kitchen_46.jpg","","","","",""
"","","","","","image-keyboard-response","465","2.0.0","586735","panu1747hap","cheetah","null","stimuli/street_47.jpg","null","street","L","non-repeat","null","407","stimuli/street_47.jpg","","","","",""
"","","","","","image-keyboard-response","466","2.0.0","587740","panu1747hap","cheetah","null","stimuli/bathroom_2.jpg","null","bathroom","A","non-repeat","null","408","stimuli/bathroom_2.jpg","","","","",""
"","","","","","image-keyboard-response","467","2.0.0","588744","panu1747hap","cheetah","null","stimuli/gym_51.jpg","null","gym","B","non-repeat","null","409","stimuli/gym_51.jpg","","","","",""
"","","","","","image-keyboard-response","468","2.0.0","589747","panu1747hap","cheetah","null","stimuli/field_43.jpg","null","field","C","non-repeat","null","410","stimuli/field_43.jpg","","","","",""
"","","","","","image-keyboard-response","469","2.0.0","590751","panu1747hap","cheetah","null","stimuli/bar_9.jpg","null","bar","J","non-repeat","null","411","stimuli/bar_9.jpg","","","","",""
"","","","","","image-keyboard-response","470","2.0.0","591754","panu1747hap","cheetah","null","stimuli/kitchen_46.jpg","null","kitchen","K","non-repeat","null","412","stimuli/kitchen_46.jpg","","","","",""
"","","","","","image-keyboard-response","471","2.0.0","592757","panu1747hap","cheetah","null","stimuli/street_47.jpg","null","street","L","non-repeat","null","413","stimuli/street_47.jpg","","","","",""
"","","","","","image-keyboard-response","472","2.0.0","593761","panu1747hap","cheetah","null","stimuli/bathroom_2.jpg","null","bathroom","A","non-repeat","null","414","stimuli/bathroom_2.jpg","","","","",""
"","","","","","image-keyboard-response","473","2.0.0","594765","panu1747hap","cheetah","null","stimuli/gym_51.jpg","null","gym","B","non-repeat","null","415","stimuli/gym_51.jpg","","","","",""
"","","","","","image-keyboard-response","474","2.0.0","595769","panu1747hap","cheetah","null","stimuli/field_43.jpg","null","field","C","non-repeat","null","416","stimuli/field_43.jpg","","","","",""
"","","","","","image-keyboard-response","475","2.0.0","596773","panu1747hap","cheetah","null","stimuli/playground_60.jpg","null","playground","G","non-repeat","null","417","stimuli/playground_60.jpg","","","","",""
"","","","","","image-keyboard-response","476","2.0.0","597777","panu1747hap","cheetah","658","stimuli/playground_60.jpg"," ","playground","G","repeat"," ","417","","","","","",""
"","","","","","image-keyboard-response","477","2.0.0","598781","panu1747hap","cheetah","null","stimuli/stream_2.jpg","null","stream","H","non-repeat","null","418","stimuli/stream_2.jpg","","","","",""
"","","","","","image-keyboard-response","478","2.0.0","599786","panu1747hap","cheetah","null","stimuli/bridge_12.jpg","null","bridge","I","non-repeat","null","419","stimuli/bridge_12.jpg","","","","",""
"","","","","","image-keyboard-response","479","2.0.0","600788","panu1747hap","cheetah","null","stimuli/woods_21.jpg","null","woods","D","non-repeat","null","420","stimuli/woods_21.jpg","","","","",""
"","","","","","image-keyboard-response","480","2.0.0","601792","panu1747hap","cheetah","null","stimuli/desert_36.jpg","null","desert","E","non-repeat","null","421","stimuli/desert_36.jpg","","","","",""
"","","","","","image-keyboard-response","481","2.0.0","602796","panu1747hap","cheetah","null","stimuli/coast_38.jpg","null","coast","F","non-repeat","null","422","stimuli/coast_38.jpg","","","","",""
"","","","","","html-keyboard-response","482","2.0.0","611069","panu1747hap","cheetah","8271","
    <div style='width:900px;margin: auto;'><p>In the next part of the experiment, we want to see how well you learned the structure in the stream of images.</p>
    <p>On each trial, you will see two sequences of three images, sequence 1 and 2. We will ask you to indicate which sequence was more familiar based on the first part of the experiment.</p>
    <p>Press 1 if the first sequence (sequence 1) felt more familiar. Press 2 if the second sequence (sequence 2) felt more familiar.</p>
    <p>Press any key to begin.</p></div>"," ","","","","","","","","","","",""
"","","","","","html-keyboard-response","483","2.0.0","612073","panu1747hap","cheetah","null","<p>Sequence 1</p>","null","","","","","","","","","","",""
"","","","","","image-keyboard-response","484","2.0.0","613076","panu1747hap","cheetah","null","stimuli/bar_9.jpg","null","","","","","","","","","","",""
"","","","","","image-keyboard-response","485","2.0.0","614080","panu1747hap","cheetah","null","stimuli/gym_51.jpg","null","","","","","","","","","","",""
"","","","","","image-keyboard-response","486","2.0.0","615084","panu1747hap","cheetah","null","stimuli/coast_38.jpg","null","","","","","","","","","","",""
"","","","","","html-keyboard-response","487","2.0.0","616088","panu1747hap","cheetah","null","<p></p>","null","","","","","","","","","","",""
"","","","","","html-keyboard-response","488","2.0.0","617091","panu1747hap","cheetah","null","<p>Sequence 2</p>","null","","","","","","","","","","",""
"","","","","","image-keyboard-response","489","2.0.0","618095","panu1747hap","cheetah","null","stimuli/playground_60.jpg","null","","","","","","","","","","",""
"","","","","","image-keyboard-response","490","2.0.0","619099","panu1747hap","cheetah","null","stimuli/stream_2.jpg","null","","","","","","","","","","",""
"","","","","","image-keyboard-response","491","2.0.0","620103","panu1747hap","cheetah","null","stimuli/bridge_12.jpg","null","","","","","","","","","","",""
"","","","","","html-keyboard-response","492","2.0.0","620756","panu1747hap","cheetah","652","<p>Press '1' if the first sequence was familiar, '2' if the second was.</p>","2","","","2","","","","[""G"",""H"",""I""]","[""J"",""B"",""F""]","true","[""<p>Sequence 1</p>"",""stimuli/bar_9.jpg"",""stimuli/gym_51.jpg"",""stimuli/coast_38.jpg""]","[""<p>Sequence 2</p>"",""stimuli/playground_60.jpg"",""stimuli/stream_2.jpg"",""stimuli/bridge_12.jpg""]"
"","","","","","html-keyboard-response","493","2.0.0","621759","panu1747hap","cheetah","null","<p>Sequence 1</p>","null","","","","","","","","","","",""
"","","","","","image-keyboard-response","494","2.0.0","622761","panu1747hap","cheetah","null","stimuli/playground_60.jpg","null","","","","","","","","","","",""
"","","","","","image-keyboard-response","495","2.0.0","623763","panu1747hap","cheetah","null","stimuli/kitchen_46.jpg","null","","","","","","","","","","",""
"","","","","","image-keyboard-response","496","2.0.0","624767","panu1747hap","cheetah","null","stimuli/field_43.jpg","null","","","","","","","","","","",""
