"success","timeout","failed_images","failed_audio","failed_video","trial_type","trial_index","plugin_version","time_elapsed","random_id","participant","rt","stimulus","response","category","letter","correct_response","correct_response_key","trial_counter","current_image","test_triplet","foil_triplet","correct","firstSequencePaths","secondSequencePaths"
"true","false","[]","[]","[]","preload","0","2.0.0","873","pbs040o3uvc","moose","","","","","","","","","","","","","",""
"true","","","","","fullscreen","1","null","2578","pbs040o3uvc","moose","683","","","","","","","","","","","","",""
"","","","","","html-keyboard-response","2","2.0.0","3868","pbs040o3uvc","moose","1287","Welcome to the experiment. Press any key to begin."," ","","","","","","","","","","",""
"","","","","","survey-text","3","2.0.0","6399","pbs040o3uvc","moose","2523","","{""participant_id"":""moose""}","","","","","","","","","","",""
"","","","","","html-keyboard-response","4","2.0.0","13262","pbs040o3uvc","moose","6860","
  <p>For this trial, you will see a series of images.</p>
  <p><b>Press the spacebar whenever you see the same image appear twice in a row.</b></p>
  <p>In other words, whenever the same image repeats back to back, press the spacebar.</p>
  <p>Press any key to begin.</p>"," ","","","","","","","","","","",""
"","","","","","image-keyboard-response","5","2.0.0","14282","pbs040o3uvc","moose","null","stimuli/bar_4.jpg","null","bar","D","non-repeat","null","0","stimuli/bar_4.jpg","","","","",""
"","","","","","image-keyboard-response","6","2.0.0","15295","pbs040o3uvc","moose","429","stimuli/bar_4.jpg"," ","bar","D","repeat"," ","0","","","","","",""
"","","","","","image-keyboard-response","7","2.0.0","16302","pbs040o3uvc","moose","null","stimuli/coast_52.jpg","null","coast","E","non-repeat","null","1","stimuli/coast_52.jpg","","","","",""
"","","","","","image-keyboard-response","8","2.0.0","17313","pbs040o3uvc","moose","null","stimuli/gym_26.jpg","null","gym","F","non-repeat","null","2","stimuli/gym_26.jpg","","","","",""
"","","","","","image-keyboard-response","9","2.0.0","18327","pbs040o3uvc","moose","538","stimuli/gym_26.jpg"," ","gym","F","repeat"," ","2","","","","","",""
"","","","","","image-keyboard-response","10","2.0.0","19341","pbs040o3uvc","moose","null","stimuli/bridge_12.jpg","null","bridge","G","non-repeat","null","3","stimuli/bridge_12.jpg","","","","",""
"","","","","","image-keyboard-response","11","2.0.0","20351","pbs040o3uvc","moose","null","stimuli/kitchen_47.jpg","null","kitchen","H","non-repeat","null","4","stimuli/kitchen_47.jpg","","","","",""
"","","","","","image-keyboard-response","12","2.0.0","21364","pbs040o3uvc","moose","null","stimuli/woods_24.jpg","null","woods","I","non-repeat","null","5","stimuli/woods_24.jpg","","","","",""
"","","","","","image-keyboard-response","13","2.0.0","22367","pbs040o3uvc","moose","543","stimuli/woods_24.jpg"," ","woods","I","repeat"," ","5","","","","","",""
"","","","","","image-keyboard-response","14","2.0.0","23371","pbs040o3uvc","moose","null","stimuli/bathroom_44.jpg","null","bathroom","J","non-repeat","null","6","stimuli/bathroom_44.jpg","","","","",""
"","","","","","image-keyboard-response","15","2.0.0","24378","pbs040o3uvc","moose","null","stimuli/stream_20.jpg","null","stream","K","non-repeat","null","7","stimuli/stream_20.jpg","","","","",""
"","","","","","image-keyboard-response","16","2.0.0","25382","pbs040o3uvc","moose","null","stimuli/desert_28.jpg","null","desert","L","non-repeat","null","8","stimuli/desert_28.jpg","","","","",""
"","","","","","image-keyboard-response","17","2.0.0","26394","pbs040o3uvc","moose","null","stimuli/bridge_12.jpg","null","bridge","G","non-repeat","null","9","stimuli/bridge_12.jpg","","","","",""
"","","","","","image-keyboard-response","18","2.0.0","27412","pbs040o3uvc","moose","null","stimuli/kitchen_47.jpg","null","kitchen","H","non-repeat","null","10","stimuli/kitchen_47.jpg","","","","",""
"","","","","","image-keyboard-response","19","2.0.0","28423","pbs040o3uvc","moose","null","stimuli/woods_24.jpg","null","woods","I","non-repeat","null","11","stimuli/woods_24.jpg","","","","",""
"","","","","","image-keyboard-response","20","2.0.0","29439","pbs040o3uvc","moose","null","stimuli/bathroom_44.jpg","null","bathroom","J","non-repeat","null","12","stimuli/bathroom_44.jpg","","","","",""
"","","","","","image-keyboard-response","21","2.0.0","30448","pbs040o3uvc","moose","null","stimuli/stream_20.jpg","null","stream","K","non-repeat","null","13","stimuli/stream_20.jpg","","","","",""
"","","","","","image-keyboard-response","22","2.0.0","31457","pbs040o3uvc","moose","null","stimuli/desert_28.jpg","null","desert","L","non-repeat","null","14","stimuli/desert_28.jpg","","","","",""
"","","","","","image-keyboard-response","23","2.0.0","32474","pbs040o3uvc","moose","null","stimuli/bridge_12.jpg","null","bridge","G","non-repeat","null","15","stimuli/bridge_12.jpg","","","","",""
"","","","","","image-keyboard-response","24","2.0.0","33492","pbs040o3uvc","moose","null","stimuli/kitchen_47.jpg","null","kitchen","H","non-repeat","null","16","stimuli/kitchen_47.jpg","","","","",""
"","","","","","image-keyboard-response","25","2.0.0","34501","pbs040o3uvc","moose","null","stimuli/woods_24.jpg","null","woods","I","non-repeat","null","17","stimuli/woods_24.jpg","","","","",""
"","","","","","image-keyboard-response","26","2.0.0","35509","pbs040o3uvc","moose","551","stimuli/woods_24.jpg"," ","woods","I","repeat"," ","17","","","","","",""
"","","","","","image-keyboard-response","27","2.0.0","36526","pbs040o3uvc","moose","null","stimuli/bar_4.jpg","null","bar","D","non-repeat","null","18","stimuli/bar_4.jpg","","","","",""
"","","","","","image-keyboard-response","28","2.0.0","37541","pbs040o3uvc","moose","null","stimuli/coast_52.jpg","null","coast","E","non-repeat","null","19","stimuli/coast_52.jpg","","","","",""
"","","","","","image-keyboard-response","29","2.0.0","38547","pbs040o3uvc","moose","null","stimuli/gym_26.jpg","null","gym","F","non-repeat","null","20","stimuli/gym_26.jpg","","","","",""
"","","","","","image-keyboard-response","30","2.0.0","39559","pbs040o3uvc","moose","null","stimuli/bathroom_44.jpg","null","bathroom","J","non-repeat","null","21","stimuli/bathroom_44.jpg","","","","",""
"","","","","","image-keyboard-response","31","2.0.0","40578","pbs040o3uvc","moose","null","stimuli/stream_20.jpg","null","stream","K","non-repeat","null","22","stimuli/stream_20.jpg","","","","",""
"","","","","","image-keyboard-response","32","2.0.0","41595","pbs040o3uvc","moose","null","stimuli/desert_28.jpg","null","desert","L","non-repeat","null","23","stimuli/desert_28.jpg","","","","",""
"","","","","","image-keyboard-response","33","2.0.0","42602","pbs040o3uvc","moose","null","stimuli/bar_4.jpg","null","bar","D","non-repeat","null","24","stimuli/bar_4.jpg","","","","",""
"","","","","","image-keyboard-response","34","2.0.0","43612","pbs040o3uvc","moose","null","stimuli/coast_52.jpg","null","coast","E","non-repeat","null","25","stimuli/coast_52.jpg","","","","",""
"","","","","","image-keyboard-response","35","2.0.0","44628","pbs040o3uvc","moose","null","stimuli/gym_26.jpg","null","gym","F","non-repeat","null","26","stimuli/gym_26.jpg","","","","",""
"","","","","","image-keyboard-response","36","2.0.0","45635","pbs040o3uvc","moose","null","stimuli/bathroom_44.jpg","null","bathroom","J","non-repeat","null","27","stimuli/bathroom_44.jpg","","","","",""
"","","","","","image-keyboard-response","37","2.0.0","46646","pbs040o3uvc","moose","null","stimuli/stream_20.jpg","null","stream","K","non-repeat","null","28","stimuli/stream_20.jpg","","","","",""
"","","","","","image-keyboard-response","38","2.0.0","47656","pbs040o3uvc","moose","null","stimuli/desert_28.jpg","null","desert","L","non-repeat","null","29","stimuli/desert_28.jpg","","","","",""
"","","","","","image-keyboard-response","39","2.0.0","48671","pbs040o3uvc","moose","null","stimuli/bridge_12.jpg","null","bridge","G","non-repeat","null","30","stimuli/bridge_12.jpg","","","","",""
"","","","","","image-keyboard-response","40","2.0.0","49681","pbs040o3uvc","moose","null","stimuli/kitchen_47.jpg","null","kitchen","H","non-repeat","null","31","stimuli/kitchen_47.jpg","","","","",""
"","","","","","image-keyboard-response","41","2.0.0","50687","pbs040o3uvc","moose","null","stimuli/woods_24.jpg","null","woods","I","non-repeat","null","32","stimuli/woods_24.jpg","","","","",""
"","","","","","image-keyboard-response","42","2.0.0","51701","pbs040o3uvc","moose","null","stimuli/bar_4.jpg","null","bar","D","non-repeat","null","33","stimuli/bar_4.jpg","","","","",""
"","","","","","image-keyboard-response","43","2.0.0","52708","pbs040o3uvc","moose","null","stimuli/coast_52.jpg","null","coast","E","non-repeat","null","34","stimuli/coast_52.jpg","","","","",""
"","","","","","image-keyboard-response","44","2.0.0","53723","pbs040o3uvc","moose","null","stimuli/gym_26.jpg","null","gym","F","non-repeat","null","35","stimuli/gym_26.jpg","","","","",""
"","","","","","image-keyboard-response","45","2.0.0","54730","pbs040o3uvc","moose","null","stimuli/bridge_12.jpg","null","bridge","G","non-repeat","null","36","stimuli/bridge_12.jpg","","","","",""
"","","","","","image-keyboard-response","46","2.0.0","55741","pbs040o3uvc","moose","null","stimuli/kitchen_47.jpg","null","kitchen","H","non-repeat","null","37","stimuli/kitchen_47.jpg","","","","",""
"","","","","","image-keyboard-response","47","2.0.0","56750","pbs040o3uvc","moose","null","stimuli/woods_24.jpg","null","woods","I","non-repeat","null","38","stimuli/woods_24.jpg","","","","",""
"","","","","","image-keyboard-response","48","2.0.0","57758","pbs040o3uvc","moose","null","stimuli/playground_4.jpg","null","playground","A","non-repeat","null","39","stimuli/playground_4.jpg","","","","",""
"","","","","","image-keyboard-response","49","2.0.0","58767","pbs040o3uvc","moose","null","stimuli/street_9.jpg","null","street","B","non-repeat","null","40","stimuli/street_9.jpg","","","","",""
"","","","","","image-keyboard-response","50","2.0.0","59777","pbs040o3uvc","moose","null","stimuli/field_52.jpg","null","field","C","non-repeat","null","41","stimuli/field_52.jpg","","","","",""
"","","","","","image-keyboard-response","51","2.0.0","60786","pbs040o3uvc","moose","null","stimuli/bridge_12.jpg","null","bridge","G","non-repeat","null","42","stimuli/bridge_12.jpg","","","","",""
"","","","","","image-keyboard-response","52","2.0.0","61790","pbs040o3uvc","moose","780","stimuli/bridge_12.jpg"," ","bridge","G","repeat"," ","42","","","","","",""
"","","","","","image-keyboard-response","53","2.0.0","62801","pbs040o3uvc","moose","null","stimuli/kitchen_47.jpg","null","kitchen","H","non-repeat","null","43","stimuli/kitchen_47.jpg","","","","",""
"","","","","","image-keyboard-response","54","2.0.0","63818","pbs040o3uvc","moose","null","stimuli/woods_24.jpg","null","woods","I","non-repeat","null","44","stimuli/woods_24.jpg","","","","",""
"","","","","","image-keyboard-response","55","2.0.0","64821","pbs040o3uvc","moose","null","stimuli/bar_4.jpg","null","bar","D","non-repeat","null","45","stimuli/bar_4.jpg","","","","",""
"","","","","","image-keyboard-response","56","2.0.0","65830","pbs040o3uvc","moose","null","stimuli/coast_52.jpg","null","coast","E","non-repeat","null","46","stimuli/coast_52.jpg","","","","",""
"","","","","","image-keyboard-response","57","2.0.0","66841","pbs040o3uvc","moose","null","stimuli/gym_26.jpg","null","gym","F","non-repeat","null","47","stimuli/gym_26.jpg","","","","",""
"","","","","","image-keyboard-response","58","2.0.0","67854","pbs040o3uvc","moose","null","stimuli/bridge_12.jpg","null","bridge","G","non-repeat","null","48","stimuli/bridge_12.jpg","","","","",""
"","","","","","image-keyboard-response","59","2.0.0","68868","pbs040o3uvc","moose","null","stimuli/kitchen_47.jpg","null","kitchen","H","non-repeat","null","49","stimuli/kitchen_47.jpg","","","","",""
"","","","","","image-keyboard-response","60","2.0.0","69875","pbs040o3uvc","moose","null","stimuli/woods_24.jpg","null","woods","I","non-repeat","null","50","stimuli/woods_24.jpg","","","","",""
"","","","","","image-keyboard-response","61","2.0.0","70893","pbs040o3uvc","moose","null","stimuli/bathroom_44.jpg","null","bathroom","J","non-repeat","null","51","stimuli/bathroom_44.jpg","","","","",""
"","","","","","image-keyboard-response","62","2.0.0","71896","pbs040o3uvc","moose","null","stimuli/bathroom_44.jpg","null","bathroom","J","repeat"," ","51","","","","","",""
"","","","","","image-keyboard-response","63","2.0.0","72905","pbs040o3uvc","moose","null","stimuli/stream_20.jpg","null","stream","K","non-repeat","null","52","stimuli/stream_20.jpg","","","","",""
"","","","","","image-keyboard-response","64","2.0.0","73915","pbs040o3uvc","moose","null","stimuli/desert_28.jpg","null","desert","L","non-repeat","null","53","stimuli/desert_28.jpg","","","","",""
"","","","","","image-keyboard-response","65","2.0.0","74922","pbs040o3uvc","moose","null","stimuli/bridge_12.jpg","null","bridge","G","non-repeat","null","54","stimuli/bridge_12.jpg","","","","",""
"","","","","","image-keyboard-response","66","2.0.0","75939","pbs040o3uvc","moose","null","stimuli/kitchen_47.jpg","null","kitchen","H","non-repeat","null","55","stimuli/kitchen_47.jpg","","","","",""
"","","","","","image-keyboard-response","67","2.0.0","76949","pbs040o3uvc","moose","null","stimuli/woods_24.jpg","null","woods","I","non-repeat","null","56","stimuli/woods_24.jpg","","","","",""
"","","","","","image-keyboard-response","68","2.0.0","77967","pbs040o3uvc","moose","null","stimuli/bar_4.jpg","null","bar","D","non-repeat","null","57","stimuli/bar_4.jpg","","","","",""
"","","","","","image-keyboard-response","69","2.0.0","78971","pbs040o3uvc","moose","null","stimuli/coast_52.jpg","null","coast","E","non-repeat","null","58","stimuli/coast_52.jpg","","","","",""
"","","","","","image-keyboard-response","70","2.0.0","79975","pbs040o3uvc","moose","null","stimuli/gym_26.jpg","null","gym","F","non-repeat","null","59","stimuli/gym_26.jpg","","","","",""
"","","","","","image-keyboard-response","71","2.0.0","80984","pbs040o3uvc","moose","null","stimuli/bridge_12.jpg","null","bridge","G","non-repeat","null","60","stimuli/bridge_12.jpg","","","","",""
"","","","","","image-keyboard-response","72","2.0.0","81992","pbs040o3uvc","moose","null","stimuli/kitchen_47.jpg","null","kitchen","H","non-repeat","null","61","stimuli/kitchen_47.jpg","","","","",""
"","","","","","image-keyboard-response","73","2.0.0","83001","pbs040o3uvc","moose","null","stimuli/woods_24.jpg","null","woods","I","non-repeat","null","62","stimuli/woods_24.jpg","","","","",""
"","","","","","image-keyboard-response","74","2.0.0","84009","pbs040o3uvc","moose","null","stimuli/bar_4.jpg","null","bar","D","non-repeat","null","63","stimuli/bar_4.jpg","","","","",""
"","","","","","image-keyboard-response","75","2.0.0","85020","pbs040o3uvc","moose","null","stimuli/coast_52.jpg","null","coast","E","non-repeat","null","64","stimuli/coast_52.jpg","","","","",""
"","","","","","image-keyboard-response","76","2.0.0","86024","pbs040o3uvc","moose","null","stimuli/gym_26.jpg","null","gym","F","non-repeat","null","65","stimuli/gym_26.jpg","","","","",""
"","","","","","image-keyboard-response","77","2.0.0","87039","pbs040o3uvc","moose","null","stimuli/bathroom_44.jpg","null","bathroom","J","non-repeat","null","66","stimuli/bathroom_44.jpg","","","","",""
"","","","","","image-keyboard-response","78","2.0.0","88050","pbs040o3uvc","moose","null","stimuli/stream_20.jpg","null","stream","K","non-repeat","null","67","stimuli/stream_20.jpg","","","","",""
"","","","","","image-keyboard-response","79","2.0.0","89059","pbs040o3uvc","moose","null","stimuli/desert_28.jpg","null","desert","L","non-repeat","null","68","stimuli/desert_28.jpg","","","","",""
"","","","","","image-keyboard-response","80","2.0.0","90066","pbs040o3uvc","moose","null","stimuli/bar_4.jpg","null","bar","D","non-repeat","null","69","stimuli/bar_4.jpg","","","","",""
"","","","","","image-keyboard-response","81","2.0.0","91072","pbs040o3uvc","moose","null","stimuli/coast_52.jpg","null","coast","E","non-repeat","null","70","stimuli/coast_52.jpg","","","","",""
"","","","","","image-keyboard-response","82","2.0.0","92087","pbs040o3uvc","moose","null","stimuli/gym_26.jpg","null","gym","F","non-repeat","null","71","stimuli/gym_26.jpg","","","","",""
"","","","","","image-keyboard-response","83","2.0.0","93096","pbs040o3uvc","moose","null","stimuli/playground_4.jpg","null","playground","A","non-repeat","null","72","stimuli/playground_4.jpg","","","","",""
"","","","","","image-keyboard-response","84","2.0.0","94102","pbs040o3uvc","moose","null","stimuli/street_9.jpg","null","street","B","non-repeat","null","73","stimuli/street_9.jpg","","","","",""
"","","","","","image-keyboard-response","85","2.0.0","95116","pbs040o3uvc","moose","null","stimuli/field_52.jpg","null","field","C","non-repeat","null","74","stimuli/field_52.jpg","","","","",""
"","","","","","image-keyboard-response","86","2.0.0","96130","pbs040o3uvc","moose","null","stimuli/bar_4.jpg","null","bar","D","non-repeat","null","75","stimuli/bar_4.jpg","","","","",""
"","","","","","image-keyboard-response","87","2.0.0","97134","pbs040o3uvc","moose","null","stimuli/coast_52.jpg","null","coast","E","non-repeat","null","76","stimuli/coast_52.jpg","","","","",""
"","","","","","image-keyboard-response","88","2.0.0","98148","pbs040o3uvc","moose","null","stimuli/gym_26.jpg","null","gym","F","non-repeat","null","77","stimuli/gym_26.jpg","","","","",""
"","","","","","image-keyboard-response","89","2.0.0","99154","pbs040o3uvc","moose","null","stimuli/bathroom_44.jpg","null","bathroom","J","non-repeat","null","78","stimuli/bathroom_44.jpg","","","","",""
"","","","","","image-keyboard-response","90","2.0.0","100164","pbs040o3uvc","moose","null","stimuli/stream_20.jpg","null","stream","K","non-repeat","null","79","stimuli/stream_20.jpg","","","","",""
"","","","","","image-keyboard-response","91","2.0.0","101176","pbs040o3uvc","moose","null","stimuli/desert_28.jpg","null","desert","L","non-repeat","null","80","stimuli/desert_28.jpg","","","","",""
"","","","","","image-keyboard-response","92","2.0.0","102189","pbs040o3uvc","moose","562","stimuli/desert_28.jpg"," ","desert","L","repeat"," ","80","","","","","",""
"","","","","","image-keyboard-response","93","2.0.0","103198","pbs040o3uvc","moose","null","stimuli/playground_4.jpg","null","playground","A","non-repeat","null","81","stimuli/playground_4.jpg","","","","",""
"","","","","","image-keyboard-response","94","2.0.0","104201","pbs040o3uvc","moose","null","stimuli/street_9.jpg","null","street","B","non-repeat","null","82","stimuli/street_9.jpg","","","","",""
"","","","","","image-keyboard-response","95","2.0.0","105211","pbs040o3uvc","moose","null","stimuli/field_52.jpg","null","field","C","non-repeat","null","83","stimuli/field_52.jpg","","","","",""
"","","","","","image-keyboard-response","96","2.0.0","106225","pbs040o3uvc","moose","null","stimuli/bathroom_44.jpg","null","bathroom","J","non-repeat","null","84","stimuli/bathroom_44.jpg","","","","",""
"","","","","","image-keyboard-response","97","2.0.0","107241","pbs040o3uvc","moose","831","stimuli/bathroom_44.jpg"," ","bathroom","J","repeat"," ","84","","","","","",""
"","","","","","image-keyboard-response","98","2.0.0","108258","pbs040o3uvc","moose","null","stimuli/stream_20.jpg","null","stream","K","non-repeat","null","85","stimuli/stream_20.jpg","","","","",""
"","","","","","image-keyboard-response","99","2.0.0","109263","pbs040o3uvc","moose","null","stimuli/desert_28.jpg","null","desert","L","non-repeat","null","86","stimuli/desert_28.jpg","","","","",""
"","","","","","image-keyboard-response","100","2.0.0","110277","pbs040o3uvc","moose","688","stimuli/desert_28.jpg"," ","desert","L","repeat"," ","86","","","","","",""
"","","","","","image-keyboard-response","101","2.0.0","111294","pbs040o3uvc","moose","null","stimuli/bridge_12.jpg","null","bridge","G","non-repeat","null","87","stimuli/bridge_12.jpg","","","","",""
"","","","","","image-keyboard-response","102","2.0.0","112301","pbs040o3uvc","moose","null","stimuli/kitchen_47.jpg","null","kitchen","H","non-repeat","null","88","stimuli/kitchen_47.jpg","","","","",""
"","","","","","image-keyboard-response","103","2.0.0","113305","pbs040o3uvc","moose","null","stimuli/woods_24.jpg","null","woods","I","non-repeat","null","89","stimuli/woods_24.jpg","","","","",""
"","","","","","image-keyboard-response","104","2.0.0","114313","pbs040o3uvc","moose","null","stimuli/bathroom_44.jpg","null","bathroom","J","non-repeat","null","90","stimuli/bathroom_44.jpg","","","","",""
"","","","","","image-keyboard-response","105","2.0.0","115324","pbs040o3uvc","moose","null","stimuli/stream_20.jpg","null","stream","K","non-repeat","null","91","stimuli/stream_20.jpg","","","","",""
"","","","","","image-keyboard-response","106","2.0.0","116342","pbs040o3uvc","moose","null","stimuli/desert_28.jpg","null","desert","L","non-repeat","null","92","stimuli/desert_28.jpg","","","","",""
"","","","","","image-keyboard-response","107","2.0.0","117352","pbs040o3uvc","moose","675","stimuli/desert_28.jpg"," ","desert","L","repeat"," ","92","","","","","",""
"","","","","","image-keyboard-response","108","2.0.0","118364","pbs040o3uvc","moose","null","stimuli/bar_4.jpg","null","bar","D","non-repeat","null","93","stimuli/bar_4.jpg","","","","",""
"","","","","","image-keyboard-response","109","2.0.0","119368","pbs040o3uvc","moose","null","stimuli/coast_52.jpg","null","coast","E","non-repeat","null","94","stimuli/coast_52.jpg","","","","",""
"","","","","","image-keyboard-response","110","2.0.0","120379","pbs040o3uvc","moose","null","stimuli/gym_26.jpg","null","gym","F","non-repeat","null","95","stimuli/gym_26.jpg","","","","",""
"","","","","","image-keyboard-response","111","2.0.0","121386","pbs040o3uvc","moose","null","stimuli/gym_26.jpg","null","gym","F","repeat"," ","95","","","","","",""
"","","","","","image-keyboard-response","112","2.0.0","122392","pbs040o3uvc","moose","null","stimuli/playground_4.jpg","null","playground","A","non-repeat","null","96","stimuli/playground_4.jpg","","","","",""
"","","","","","image-keyboard-response","113","2.0.0","123396","pbs040o3uvc","moose","null","stimuli/street_9.jpg","null","street","B","non-repeat","null","97","stimuli/street_9.jpg","","","","",""
"","","","","","image-keyboard-response","114","2.0.0","124414","pbs040o3uvc","moose","null","stimuli/field_52.jpg","null","field","C","non-repeat","null","98","stimuli/field_52.jpg","","","","",""
"","","","","","image-keyboard-response","115","2.0.0","125417","pbs040o3uvc","moose","null","stimuli/bathroom_44.jpg","null","bathroom","J","non-repeat","null","99","stimuli/bathroom_44.jpg","","","","",""
"","","","","","image-keyboard-response","116","2.0.0","126434","pbs040o3uvc","moose","null","stimuli/stream_20.jpg","null","stream","K","non-repeat","null","100","stimuli/stream_20.jpg","","","","",""
"","","","","","image-keyboard-response","117","2.0.0","127450","pbs040o3uvc","moose","null","stimuli/desert_28.jpg","null","desert","L","non-repeat","null","101","stimuli/desert_28.jpg","","","","",""
"","","","","","image-keyboard-response","118","2.0.0","128457","pbs040o3uvc","moose","null","stimuli/playground_4.jpg","null","playground","A","non-repeat","null","102","stimuli/playground_4.jpg","","","","",""
"","","","","","image-keyboard-response","119","2.0.0","129468","pbs040o3uvc","moose","null","stimuli/street_9.jpg","null","street","B","non-repeat","null","103","stimuli/street_9.jpg","","","","",""
"","","","","","image-keyboard-response","120","2.0.0","130475","pbs040o3uvc","moose","null","stimuli/field_52.jpg","null","field","C","non-repeat","null","104","stimuli/field_52.jpg","","","","",""
"","","","","","image-keyboard-response","121","2.0.0","131486","pbs040o3uvc","moose","null","stimuli/bridge_12.jpg","null","bridge","G","non-repeat","null","105","stimuli/bridge_12.jpg","","","","",""
"","","","","","image-keyboard-response","122","2.0.0","132501","pbs040o3uvc","moose","null","stimuli/kitchen_47.jpg","null","kitchen","H","non-repeat","null","106","stimuli/kitchen_47.jpg","","","","",""
"","","","","","image-keyboard-response","123","2.0.0","133517","pbs040o3uvc","moose","null","stimuli/woods_24.jpg","null","woods","I","non-repeat","null","107","stimuli/woods_24.jpg","","","","",""
"","","","","","image-keyboard-response","124","2.0.0","134522","pbs040o3uvc","moose","null","stimuli/playground_4.jpg","null","playground","A","non-repeat","null","108","stimuli/playground_4.jpg","","","","",""
"","","","","","image-keyboard-response","125","2.0.0","135531","pbs040o3uvc","moose","null","stimuli/street_9.jpg","null","street","B","non-repeat","null","109","stimuli/street_9.jpg","","","","",""
"","","","","","image-keyboard-response","126","2.0.0","136543","pbs040o3uvc","moose","null","stimuli/field_52.jpg","null","field","C","non-repeat","null","110","stimuli/field_52.jpg","","","","",""
"","","","","","image-keyboard-response","127","2.0.0","137557","pbs040o3uvc","moose","null","stimuli/bar_4.jpg","null","bar","D","non-repeat","null","111","stimuli/bar_4.jpg","","","","",""
"","","","","","image-keyboard-response","128","2.0.0","138562","pbs040o3uvc","moose","null","stimuli/coast_52.jpg","null","coast","E","non-repeat","null","112","stimuli/coast_52.jpg","","","","",""
"","","","","","image-keyboard-response","129","2.0.0","139569","pbs040o3uvc","moose","null","stimuli/gym_26.jpg","null","gym","F","non-repeat","null","113","stimuli/gym_26.jpg","","","","",""
"","","","","","image-keyboard-response","130","2.0.0","140581","pbs040o3uvc","moose","null","stimuli/bathroom_44.jpg","null","bathroom","J","non-repeat","null","114","stimuli/bathroom_44.jpg","","","","",""
"","","","","","image-keyboard-response","131","2.0.0","141588","pbs040o3uvc","moose","null","stimuli/stream_20.jpg","null","stream","K","non-repeat","null","115","stimuli/stream_20.jpg","","","","",""
"","","","","","image-keyboard-response","132","2.0.0","142597","pbs040o3uvc","moose","null","stimuli/desert_28.jpg","null","desert","L","non-repeat","null","116","stimuli/desert_28.jpg","","","","",""
"","","","","","image-keyboard-response","133","2.0.0","143604","pbs040o3uvc","moose","null","stimuli/playground_4.jpg","null","playground","A","non-repeat","null","117","stimuli/playground_4.jpg","","","","",""
"","","","","","image-keyboard-response","134","2.0.0","144619","pbs040o3uvc","moose","null","stimuli/street_9.jpg","null","street","B","non-repeat","null","118","stimuli/street_9.jpg","","","","",""
"","","","","","image-keyboard-response","135","2.0.0","145624","pbs040o3uvc","moose","null","stimuli/field_52.jpg","null","field","C","non-repeat","null","119","stimuli/field_52.jpg","","","","",""
"","","","","","image-keyboard-response","136","2.0.0","146629","pbs040o3uvc","moose","null","stimuli/bridge_12.jpg","null","bridge","G","non-repeat","null","120","stimuli/bridge_12.jpg","","","","",""
"","","","","","image-keyboard-response","137","2.0.0","147640","pbs040o3uvc","moose","null","stimuli/kitchen_47.jpg","null","kitchen","H","non-repeat","null","121","stimuli/kitchen_47.jpg","","","","",""
"","","","","","image-keyboard-response","138","2.0.0","148650","pbs040o3uvc","moose","null","stimuli/woods_24.jpg","null","woods","I","non-repeat","null","122","stimuli/woods_24.jpg","","","","",""
"","","","","","image-keyboard-response","139","2.0.0","149663","pbs040o3uvc","moose","null","stimuli/playground_4.jpg","null","playground","A","non-repeat","null","123","stimuli/playground_4.jpg","","","","",""
"","","","","","image-keyboard-response","140","2.0.0","150674","pbs040o3uvc","moose","null","stimuli/street_9.jpg","null","street","B","non-repeat","null","124","stimuli/street_9.jpg","","","","",""
"","","","","","image-keyboard-response","141","2.0.0","151681","pbs040o3uvc","moose","null","stimuli/field_52.jpg","null","field","C","non-repeat","null","125","stimuli/field_52.jpg","","","","",""
"","","","","","image-keyboard-response","142","2.0.0","152692","pbs040o3uvc","moose","null","stimuli/bridge_12.jpg","null","bridge","G","non-repeat","null","126","stimuli/bridge_12.jpg","","","","",""
"","","","","","image-keyboard-response","143","2.0.0","153702","pbs040o3uvc","moose","538","stimuli/bridge_12.jpg"," ","bridge","G","repeat"," ","126","","","","","",""
"","","","","","image-keyboard-response","144","2.0.0","154717","pbs040o3uvc","moose","null","stimuli/kitchen_47.jpg","null","kitchen","H","non-repeat","null","127","stimuli/kitchen_47.jpg","","","","",""
"","","","","","image-keyboard-response","145","2.0.0","155725","pbs040o3uvc","moose","null","stimuli/woods_24.jpg","null","woods","I","non-repeat","null","128","stimuli/woods_24.jpg","","","","",""
"","","","","","image-keyboard-response","146","2.0.0","156741","pbs040o3uvc","moose","null","stimuli/playground_4.jpg","null","playground","A","non-repeat","null","129","stimuli/playground_4.jpg","","","","",""
"","","","","","image-keyboard-response","147","2.0.0","157754","pbs040o3uvc","moose","null","stimuli/street_9.jpg","null","street","B","non-repeat","null","130","stimuli/street_9.jpg","","","","",""
"","","","","","image-keyboard-response","148","2.0.0","158762","pbs040o3uvc","moose","null","stimuli/field_52.jpg","null","field","C","non-repeat","null","131","stimuli/field_52.jpg","","","","",""
"","","","","","image-keyboard-response","149","2.0.0","159773","pbs040o3uvc","moose","null","stimuli/bar_4.jpg","null","bar","D","non-repeat","null","132","stimuli/bar_4.jpg","","","","",""
"","","","","","image-keyboard-response","150","2.0.0","160787","pbs040o3uvc","moose","563","stimuli/bar_4.jpg"," ","bar","D","repeat"," ","132","","","","","",""
"","","","","","image-keyboard-response","151","2.0.0","161796","pbs040o3uvc","moose","null","stimuli/coast_52.jpg","null","coast","E","non-repeat","null","133","stimuli/coast_52.jpg","","","","",""
"","","","","","image-keyboard-response","152","2.0.0","162804","pbs040o3uvc","moose","null","stimuli/gym_26.jpg","null","gym","F","non-repeat","null","134","stimuli/gym_26.jpg","","","","",""
"","","","","","image-keyboard-response","153","2.0.0","163814","pbs040o3uvc","moose","null","stimuli/bridge_12.jpg","null","bridge","G","non-repeat","null","135","stimuli/bridge_12.jpg","","","","",""
"","","","","","image-keyboard-response","154","2.0.0","164825","pbs040o3uvc","moose","null","stimuli/kitchen_47.jpg","null","kitchen","H","non-repeat","null","136","stimuli/kitchen_47.jpg","","","","",""
"","","","","","image-keyboard-response","155","2.0.0","165843","pbs040o3uvc","moose","null","stimuli/woods_24.jpg","null","woods","I","non-repeat","null","137","stimuli/woods_24.jpg","","","","",""
"","","","","","image-keyboard-response","156","2.0.0","166847","pbs040o3uvc","moose","null","stimuli/playground_4.jpg","null","playground","A","non-repeat","null","138","stimuli/playground_4.jpg","","","","",""
"","","","","","image-keyboard-response","157","2.0.0","167854","pbs040o3uvc","moose","null","stimuli/street_9.jpg","null","street","B","non-repeat","null","139","stimuli/street_9.jpg","","","","",""
"","","","","","image-keyboard-response","158","2.0.0","168863","pbs040o3uvc","moose","null","stimuli/field_52.jpg","null","field","C","non-repeat","null","140","stimuli/field_52.jpg","","","","",""
"","","","","","image-keyboard-response","159","2.0.0","169868","pbs040o3uvc","moose","null","stimuli/bathroom_44.jpg","null","bathroom","J","non-repeat","null","141","stimuli/bathroom_44.jpg","","","","",""
"","","","","","image-keyboard-response","160","2.0.0","170876","pbs040o3uvc","moose","null","stimuli/stream_20.jpg","null","stream","K","non-repeat","null","142","stimuli/stream_20.jpg","","","","",""
"","","","","","image-keyboard-response","161","2.0.0","171881","pbs040o3uvc","moose","null","stimuli/desert_28.jpg","null","desert","L","non-repeat","null","143","stimuli/desert_28.jpg","","","","",""
"","","","","","image-keyboard-response","162","2.0.0","172895","pbs040o3uvc","moose","null","stimuli/playground_4.jpg","null","playground","A","non-repeat","null","144","stimuli/playground_4.jpg","","","","",""
"","","","","","image-keyboard-response","163","2.0.0","173901","pbs040o3uvc","moose","null","stimuli/street_9.jpg","null","street","B","non-repeat","null","145","stimuli/street_9.jpg","","","","",""
"","","","","","image-keyboard-response","164","2.0.0","174918","pbs040o3uvc","moose","null","stimuli/field_52.jpg","null","field","C","non-repeat","null","146","stimuli/field_52.jpg","","","","",""
"","","","","","image-keyboard-response","165","2.0.0","175929","pbs040o3uvc","moose","null","stimuli/bathroom_44.jpg","null","bathroom","J","non-repeat","null","147","stimuli/bathroom_44.jpg","","","","",""
"","","","","","image-keyboard-response","166","2.0.0","176943","pbs040o3uvc","moose","null","stimuli/stream_20.jpg","null","stream","K","non-repeat","null","148","stimuli/stream_20.jpg","","","","",""
"","","","","","image-keyboard-response","167","2.0.0","177950","pbs040o3uvc","moose","null","stimuli/desert_28.jpg","null","desert","L","non-repeat","null","149","stimuli/desert_28.jpg","","","","",""
"","","","","","image-keyboard-response","168","2.0.0","178969","pbs040o3uvc","moose","null","stimuli/playground_4.jpg","null","playground","A","non-repeat","null","150","stimuli/playground_4.jpg","","","","",""
"","","","","","image-keyboard-response","169","2.0.0","179984","pbs040o3uvc","moose","583","stimuli/playground_4.jpg"," ","playground","A","repeat"," ","150","","","","","",""
"","","","","","image-keyboard-response","170","2.0.0","180992","pbs040o3uvc","moose","null","stimuli/street_9.jpg","null","street","B","non-repeat","null","151","stimuli/street_9.jpg","","","","",""
"","","","","","image-keyboard-response","171","2.0.0","182001","pbs040o3uvc","moose","null","stimuli/field_52.jpg","null","field","C","non-repeat","null","152","stimuli/field_52.jpg","","","","",""
"","","","","","image-keyboard-response","172","2.0.0","183020","pbs040o3uvc","moose","null","stimuli/bridge_12.jpg","null","bridge","G","non-repeat","null","153","stimuli/bridge_12.jpg","","","","",""
"","","","","","image-keyboard-response","173","2.0.0","184027","pbs040o3uvc","moose","null","stimuli/kitchen_47.jpg","null","kitchen","H","non-repeat","null","154","stimuli/kitchen_47.jpg","","","","",""
"","","","","","image-keyboard-response","174","2.0.0","185037","pbs040o3uvc","moose","null","stimuli/woods_24.jpg","null","woods","I","non-repeat","null","155","stimuli/woods_24.jpg","","","","",""
"","","","","","image-keyboard-response","175","2.0.0","186045","pbs040o3uvc","moose","null","stimuli/bathroom_44.jpg","null","bathroom","J","non-repeat","null","156","stimuli/bathroom_44.jpg","","","","",""
"","","","","","image-keyboard-response","176","2.0.0","187054","pbs040o3uvc","moose","575","stimuli/bathroom_44.jpg"," ","bathroom","J","repeat"," ","156","","","","","",""
"","","","","","image-keyboard-response","177","2.0.0","188073","pbs040o3uvc","moose","null","stimuli/stream_20.jpg","null","stream","K","non-repeat","null","157","stimuli/stream_20.jpg","","","","",""
"","","","","","image-keyboard-response","178","2.0.0","189087","pbs040o3uvc","moose","null","stimuli/desert_28.jpg","null","desert","L","non-repeat","null","158","stimuli/desert_28.jpg","","","","",""
"","","","","","image-keyboard-response","179","2.0.0","190090","pbs040o3uvc","moose","null","stimuli/bar_4.jpg","null","bar","D","non-repeat","null","159","stimuli/bar_4.jpg","","","","",""
"","","","","","image-keyboard-response","180","2.0.0","191104","pbs040o3uvc","moose","null","stimuli/coast_52.jpg","null","coast","E","non-repeat","null","160","stimuli/coast_52.jpg","","","","",""
"","","","","","image-keyboard-response","181","2.0.0","192120","pbs040o3uvc","moose","null","stimuli/gym_26.jpg","null","gym","F","non-repeat","null","161","stimuli/gym_26.jpg","","","","",""
"","","","","","image-keyboard-response","182","2.0.0","193124","pbs040o3uvc","moose","null","stimuli/playground_4.jpg","null","playground","A","non-repeat","null","162","stimuli/playground_4.jpg","","","","",""
"","","","","","image-keyboard-response","183","2.0.0","194137","pbs040o3uvc","moose","null","stimuli/street_9.jpg","null","street","B","non-repeat","null","163","stimuli/street_9.jpg","","","","",""
"","","","","","image-keyboard-response","184","2.0.0","195149","pbs040o3uvc","moose","null","stimuli/field_52.jpg","null","field","C","non-repeat","null","164","stimuli/field_52.jpg","","","","",""
"","","","","","image-keyboard-response","185","2.0.0","196158","pbs040o3uvc","moose","null","stimuli/bar_4.jpg","null","bar","D","non-repeat","null","165","stimuli/bar_4.jpg","","","","",""
"","","","","","image-keyboard-response","186","2.0.0","197172","pbs040o3uvc","moose","null","stimuli/coast_52.jpg","null","coast","E","non-repeat","null","166","stimuli/coast_52.jpg","","","","",""
"","","","","","image-keyboard-response","187","2.0.0","198186","pbs040o3uvc","moose","null","stimuli/gym_26.jpg","null","gym","F","non-repeat","null","167","stimuli/gym_26.jpg","","","","",""
"","","","","","image-keyboard-response","188","2.0.0","199201","pbs040o3uvc","moose","722","stimuli/gym_26.jpg"," ","gym","F","repeat"," ","167","","","","","",""
"","","","","","image-keyboard-response","189","2.0.0","200207","pbs040o3uvc","moose","null","stimuli/bridge_12.jpg","null","bridge","G","non-repeat","null","168","stimuli/bridge_12.jpg","","","","",""
"","","","","","image-keyboard-response","190","2.0.0","201217","pbs040o3uvc","moose","null","stimuli/kitchen_47.jpg","null","kitchen","H","non-repeat","null","169","stimuli/kitchen_47.jpg","","","","",""
"","","","","","image-keyboard-response","191","2.0.0","202224","pbs040o3uvc","moose","null","stimuli/woods_24.jpg","null","woods","I","non-repeat","null","170","stimuli/woods_24.jpg","","","","",""
"","","","","","image-keyboard-response","192","2.0.0","203243","pbs040o3uvc","moose","null","stimuli/playground_4.jpg","null","playground","A","non-repeat","null","171","stimuli/playground_4.jpg","","","","",""
"","","","","","image-keyboard-response","193","2.0.0","204249","pbs040o3uvc","moose","696","stimuli/playground_4.jpg"," ","playground","A","repeat"," ","171","","","","","",""
"","","","","","image-keyboard-response","194","2.0.0","205268","pbs040o3uvc","moose","null","stimuli/street_9.jpg","null","street","B","non-repeat","null","172","stimuli/street_9.jpg","","","","",""
"","","","","","image-keyboard-response","195","2.0.0","206279","pbs040o3uvc","moose","null","stimuli/field_52.jpg","null","field","C","non-repeat","null","173","stimuli/field_52.jpg","","","","",""
"","","","","","image-keyboard-response","196","2.0.0","207290","pbs040o3uvc","moose","null","stimuli/bathroom_44.jpg","null","bathroom","J","non-repeat","null","174","stimuli/bathroom_44.jpg","","","","",""
"","","","","","image-keyboard-response","197","2.0.0","208299","pbs040o3uvc","moose","null","stimuli/stream_20.jpg","null","stream","K","non-repeat","null","175","stimuli/stream_20.jpg","","","","",""
"","","","","","image-keyboard-response","198","2.0.0","209311","pbs040o3uvc","moose","null","stimuli/desert_28.jpg","null","desert","L","non-repeat","null","176","stimuli/desert_28.jpg","","","","",""
"","","","","","image-keyboard-response","199","2.0.0","210317","pbs040o3uvc","moose","null","stimuli/bar_4.jpg","null","bar","D","non-repeat","null","177","stimuli/bar_4.jpg","","","","",""
"","","","","","image-keyboard-response","200","2.0.0","211336","pbs040o3uvc","moose","null","stimuli/coast_52.jpg","null","coast","E","non-repeat","null","178","stimuli/coast_52.jpg","","","","",""
"","","","","","image-keyboard-response","201","2.0.0","212342","pbs040o3uvc","moose","null","stimuli/gym_26.jpg","null","gym","F","non-repeat","null","179","stimuli/gym_26.jpg","","","","",""
"","","","","","image-keyboard-response","202","2.0.0","213359","pbs040o3uvc","moose","580","stimuli/gym_26.jpg"," ","gym","F","repeat"," ","179","","","","","",""
"","","","","","image-keyboard-response","203","2.0.0","214377","pbs040o3uvc","moose","null","stimuli/bridge_12.jpg","null","bridge","G","non-repeat","null","180","stimuli/bridge_12.jpg","","","","",""
"","","","","","image-keyboard-response","204","2.0.0","215383","pbs040o3uvc","moose","null","stimuli/kitchen_47.jpg","null","kitchen","H","non-repeat","null","181","stimuli/kitchen_47.jpg","","","","",""
"","","","","","image-keyboard-response","205","2.0.0","216390","pbs040o3uvc","moose","null","stimuli/woods_24.jpg","null","woods","I","non-repeat","null","182","stimuli/woods_24.jpg","","","","",""
"","","","","","image-keyboard-response","206","2.0.0","217397","pbs040o3uvc","moose","null","stimuli/playground_4.jpg","null","playground","A","non-repeat","null","183","stimuli/playground_4.jpg","","","","",""
"","","","","","image-keyboard-response","207","2.0.0","218404","pbs040o3uvc","moose","735","stimuli/playground_4.jpg"," ","playground","A","repeat"," ","183","","","","","",""
"","","","","","image-keyboard-response","208","2.0.0","219418","pbs040o3uvc","moose","20","stimuli/street_9.jpg"," ","street","B","non-repeat","null","184","stimuli/street_9.jpg","","","","",""
"","","","","","image-keyboard-response","209","2.0.0","220429","pbs040o3uvc","moose","null","stimuli/field_52.jpg","null","field","C","non-repeat","null","185","stimuli/field_52.jpg","","","","",""
"","","","","","image-keyboard-response","210","2.0.0","221432","pbs040o3uvc","moose","null","stimuli/bar_4.jpg","null","bar","D","non-repeat","null","186","stimuli/bar_4.jpg","","","","",""
"","","","","","image-keyboard-response","211","2.0.0","222436","pbs040o3uvc","moose","null","stimuli/coast_52.jpg","null","coast","E","non-repeat","null","187","stimuli/coast_52.jpg","","","","",""
"","","","","","image-keyboard-response","212","2.0.0","223448","pbs040o3uvc","moose","null","stimuli/gym_26.jpg","null","gym","F","non-repeat","null","188","stimuli/gym_26.jpg","","","","",""
"","","","","","image-keyboard-response","213","2.0.0","224457","pbs040o3uvc","moose","null","stimuli/bridge_12.jpg","null","bridge","G","non-repeat","null","189","stimuli/bridge_12.jpg","","","","",""
"","","","","","image-keyboard-response","214","2.0.0","225466","pbs040o3uvc","moose","null","stimuli/kitchen_47.jpg","null","kitchen","H","non-repeat","null","190","stimuli/kitchen_47.jpg","","","","",""
"","","","","","image-keyboard-response","215","2.0.0","226480","pbs040o3uvc","moose","null","stimuli/woods_24.jpg","null","woods","I","non-repeat","null","191","stimuli/woods_24.jpg","","","","",""
"","","","","","image-keyboard-response","216","2.0.0","227487","pbs040o3uvc","moose","null","stimuli/bathroom_44.jpg","null","bathroom","J","non-repeat","null","192","stimuli/bathroom_44.jpg","","","","",""
"","","","","","image-keyboard-response","217","2.0.0","228496","pbs040o3uvc","moose","729","stimuli/bathroom_44.jpg"," ","bathroom","J","repeat"," ","192","","","","","",""
"","","","","","image-keyboard-response","218","2.0.0","229513","pbs040o3uvc","moose","null","stimuli/stream_20.jpg","null","stream","K","non-repeat","null","193","stimuli/stream_20.jpg","","","","",""
"","","","","","image-keyboard-response","219","2.0.0","230524","pbs040o3uvc","moose","null","stimuli/desert_28.jpg","null","desert","L","non-repeat","null","194","stimuli/desert_28.jpg","","","","",""
"","","","","","image-keyboard-response","220","2.0.0","231535","pbs040o3uvc","moose","null","stimuli/bar_4.jpg","null","bar","D","non-repeat","null","195","stimuli/bar_4.jpg","","","","",""
"","","","","","image-keyboard-response","221","2.0.0","232542","pbs040o3uvc","moose","null","stimuli/bar_4.jpg","null","bar","D","repeat"," ","195","","","","","",""
"","","","","","image-keyboard-response","222","2.0.0","233554","pbs040o3uvc","moose","null","stimuli/coast_52.jpg","null","coast","E","non-repeat","null","196","stimuli/coast_52.jpg","","","","",""
"","","","","","image-keyboard-response","223","2.0.0","234561","pbs040o3uvc","moose","null","stimuli/gym_26.jpg","null","gym","F","non-repeat","null","197","stimuli/gym_26.jpg","","","","",""
"","","","","","image-keyboard-response","224","2.0.0","235568","pbs040o3uvc","moose","null","stimuli/bathroom_44.jpg","null","bathroom","J","non-repeat","null","198","stimuli/bathroom_44.jpg","","","","",""
"","","","","","image-keyboard-response","225","2.0.0","236577","pbs040o3uvc","moose","null","stimuli/stream_20.jpg","null","stream","K","non-repeat","null","199","stimuli/stream_20.jpg","","","","",""
"","","","","","image-keyboard-response","226","2.0.0","237581","pbs040o3uvc","moose","null","stimuli/desert_28.jpg","null","desert","L","non-repeat","null","200","stimuli/desert_28.jpg","","","","",""
"","","","","","image-keyboard-response","227","2.0.0","238591","pbs040o3uvc","moose","null","stimuli/bridge_12.jpg","null","bridge","G","non-repeat","null","201","stimuli/bridge_12.jpg","","","","",""
"","","","","","image-keyboard-response","228","2.0.0","239595","pbs040o3uvc","moose","null","stimuli/kitchen_47.jpg","null","kitchen","H","non-repeat","null","202","stimuli/kitchen_47.jpg","","","","",""
"","","","","","image-keyboard-response","229","2.0.0","240611","pbs040o3uvc","moose","null","stimuli/woods_24.jpg","null","woods","I","non-repeat","null","203","stimuli/woods_24.jpg","","","","",""
"","","","","","image-keyboard-response","230","2.0.0","241616","pbs040o3uvc","moose","null","stimuli/woods_24.jpg","null","woods","I","repeat"," ","203","","","","","",""
"","","","","","image-keyboard-response","231","2.0.0","242630","pbs040o3uvc","moose","null","stimuli/bathroom_44.jpg","null","bathroom","J","non-repeat","null","204","stimuli/bathroom_44.jpg","","","","",""
"","","","","","image-keyboard-response","232","2.0.0","243641","pbs040o3uvc","moose","640","stimuli/bathroom_44.jpg"," ","bathroom","J","repeat"," ","204","","","","","",""
"","","","","","image-keyboard-response","233","2.0.0","244653","pbs040o3uvc","moose","null","stimuli/stream_20.jpg","null","stream","K","non-repeat","null","205","stimuli/stream_20.jpg","","","","",""
"","","","","","image-keyboard-response","234","2.0.0","245663","pbs040o3uvc","moose","null","stimuli/desert_28.jpg","null","desert","L","non-repeat","null","206","stimuli/desert_28.jpg","","","","",""
"","","","","","image-keyboard-response","235","2.0.0","246675","pbs040o3uvc","moose","null","stimuli/bar_4.jpg","null","bar","D","non-repeat","null","207","stimuli/bar_4.jpg","","","","",""
"","","","","","image-keyboard-response","236","2.0.0","247682","pbs040o3uvc","moose","null","stimuli/coast_52.jpg","null","coast","E","non-repeat","null","208","stimuli/coast_52.jpg","","","","",""
"","","","","","image-keyboard-response","237","2.0.0","248684","pbs040o3uvc","moose","null","stimuli/gym_26.jpg","null","gym","F","non-repeat","null","209","stimuli/gym_26.jpg","","","","",""
"","","","","","image-keyboard-response","238","2.0.0","249687","pbs040o3uvc","moose","null","stimuli/bridge_12.jpg","null","bridge","G","non-repeat","null","210","stimuli/bridge_12.jpg","","","","",""
"","","","","","image-keyboard-response","239","2.0.0","250696","pbs040o3uvc","moose","null","stimuli/kitchen_47.jpg","null","kitchen","H","non-repeat","null","211","stimuli/kitchen_47.jpg","","","","",""
"","","","","","image-keyboard-response","240","2.0.0","251701","pbs040o3uvc","moose","null","stimuli/woods_24.jpg","null","woods","I","non-repeat","null","212","stimuli/woods_24.jpg","","","","",""
"","","","","","image-keyboard-response","241","2.0.0","252707","pbs040o3uvc","moose","null","stimuli/playground_4.jpg","null","playground","A","non-repeat","null","213","stimuli/playground_4.jpg","","","","",""
"","","","","","image-keyboard-response","242","2.0.0","253718","pbs040o3uvc","moose","644","stimuli/playground_4.jpg"," ","playground","A","repeat"," ","213","","","","","",""
"","","","","","image-keyboard-response","243","2.0.0","254724","pbs040o3uvc","moose","null","stimuli/street_9.jpg","null","street","B","non-repeat","null","214","stimuli/street_9.jpg","","","","",""
"","","","","","image-keyboard-response","244","2.0.0","255730","pbs040o3uvc","moose","null","stimuli/field_52.jpg","null","field","C","non-repeat","null","215","stimuli/field_52.jpg","","","","",""
"","","","","","image-keyboard-response","245","2.0.0","256737","pbs040o3uvc","moose","null","stimuli/bridge_12.jpg","null","bridge","G","non-repeat","null","216","stimuli/bridge_12.jpg","","","","",""
"","","","","","image-keyboard-response","246","2.0.0","257754","pbs040o3uvc","moose","null","stimuli/kitchen_47.jpg","null","kitchen","H","non-repeat","null","217","stimuli/kitchen_47.jpg","","","","",""
"","","","","","image-keyboard-response","247","2.0.0","258761","pbs040o3uvc","moose","null","stimuli/woods_24.jpg","null","woods","I","non-repeat","null","218","stimuli/woods_24.jpg","","","","",""
"","","","","","image-keyboard-response","248","2.0.0","259766","pbs040o3uvc","moose","null","stimuli/bathroom_44.jpg","null","bathroom","J","non-repeat","null","219","stimuli/bathroom_44.jpg","","","","",""
"","","","","","image-keyboard-response","249","2.0.0","260776","pbs040o3uvc","moose","null","stimuli/stream_20.jpg","null","stream","K","non-repeat","null","220","stimuli/stream_20.jpg","","","","",""
"","","","","","image-keyboard-response","250","2.0.0","261791","pbs040o3uvc","moose","null","stimuli/desert_28.jpg","null","desert","L","non-repeat","null","221","stimuli/desert_28.jpg","","","","",""
"","","","","","image-keyboard-response","251","2.0.0","262800","pbs040o3uvc","moose","null","stimuli/desert_28.jpg","null","desert","L","repeat"," ","221","","","","","",""
"","","","","","image-keyboard-response","252","2.0.0","263805","pbs040o3uvc","moose","null","stimuli/bridge_12.jpg","null","bridge","G","non-repeat","null","222","stimuli/bridge_12.jpg","","","","",""
"","","","","","image-keyboard-response","253","2.0.0","264808","pbs040o3uvc","moose","null","stimuli/kitchen_47.jpg","null","kitchen","H","non-repeat","null","223","stimuli/kitchen_47.jpg","","","","",""
"","","","","","image-keyboard-response","254","2.0.0","265823","pbs040o3uvc","moose","null","stimuli/woods_24.jpg","null","woods","I","non-repeat","null","224","stimuli/woods_24.jpg","","","","",""
"","","","","","image-keyboard-response","255","2.0.0","266826","pbs040o3uvc","moose","null","stimuli/playground_4.jpg","null","playground","A","non-repeat","null","225","stimuli/playground_4.jpg","","","","",""
"","","","","","image-keyboard-response","256","2.0.0","267834","pbs040o3uvc","moose","null","stimuli/street_9.jpg","null","street","B","non-repeat","null","226","stimuli/street_9.jpg","","","","",""
"","","","","","image-keyboard-response","257","2.0.0","268840","pbs040o3uvc","moose","null","stimuli/field_52.jpg","null","field","C","non-repeat","null","227","stimuli/field_52.jpg","","","","",""
"","","","","","image-keyboard-response","258","2.0.0","269848","pbs040o3uvc","moose","null","stimuli/bar_4.jpg","null","bar","D","non-repeat","null","228","stimuli/bar_4.jpg","","","","",""
"","","","","","image-keyboard-response","259","2.0.0","270857","pbs040o3uvc","moose","643","stimuli/bar_4.jpg"," ","bar","D","repeat"," ","228","","","","","",""
"","","","","","image-keyboard-response","260","2.0.0","271865","pbs040o3uvc","moose","null","stimuli/coast_52.jpg","null","coast","E","non-repeat","null","229","stimuli/coast_52.jpg","","","","",""
"","","","","","image-keyboard-response","261","2.0.0","272880","pbs040o3uvc","moose","null","stimuli/gym_26.jpg","null","gym","F","non-repeat","null","230","stimuli/gym_26.jpg","","","","",""
"","","","","","image-keyboard-response","262","2.0.0","273898","pbs040o3uvc","moose","null","stimuli/bathroom_44.jpg","null","bathroom","J","non-repeat","null","231","stimuli/bathroom_44.jpg","","","","",""
"","","","","","image-keyboard-response","263","2.0.0","274915","pbs040o3uvc","moose","null","stimuli/stream_20.jpg","null","stream","K","non-repeat","null","232","stimuli/stream_20.jpg","","","","",""
"","","","","","image-keyboard-response","264","2.0.0","275927","pbs040o3uvc","moose","null","stimuli/desert_28.jpg","null","desert","L","non-repeat","null","233","stimuli/desert_28.jpg","","","","",""
"","","","","","image-keyboard-response","265","2.0.0","276940","pbs040o3uvc","moose","null","stimuli/bar_4.jpg","null","bar","D","non-repeat","null","234","stimuli/bar_4.jpg","","","","",""
"","","","","","image-keyboard-response","266","2.0.0","277946","pbs040o3uvc","moose","null","stimuli/coast_52.jpg","null","coast","E","non-repeat","null","235","stimuli/coast_52.jpg","","","","",""
"","","","","","image-keyboard-response","267","2.0.0","278957","pbs040o3uvc","moose","null","stimuli/gym_26.jpg","null","gym","F","non-repeat","null","236","stimuli/gym_26.jpg","","","","",""
"","","","","","image-keyboard-response","268","2.0.0","279962","pbs040o3uvc","moose","null","stimuli/bathroom_44.jpg","null","bathroom","J","non-repeat","null","237","stimuli/bathroom_44.jpg","","","","",""
"","","","","","image-keyboard-response","269","2.0.0","280981","pbs040o3uvc","moose","null","stimuli/stream_20.jpg","null","stream","K","non-repeat","null","238","stimuli/stream_20.jpg","","","","",""
"","","","","","image-keyboard-response","270","2.0.0","281994","pbs040o3uvc","moose","null","stimuli/desert_28.jpg","null","desert","L","non-repeat","null","239","stimuli/desert_28.jpg","","","","",""
"","","","","","image-keyboard-response","271","2.0.0","283007","pbs040o3uvc","moose","null","stimuli/desert_28.jpg","null","desert","L","repeat"," ","239","","","","","",""
"","","","","","image-keyboard-response","272","2.0.0","284021","pbs040o3uvc","moose","null","stimuli/playground_4.jpg","null","playground","A","non-repeat","null","240","stimuli/playground_4.jpg","","","","",""
"","","","","","image-keyboard-response","273","2.0.0","285033","pbs040o3uvc","moose","null","stimuli/street_9.jpg","null","street","B","non-repeat","null","241","stimuli/street_9.jpg","","","","",""
"","","","","","image-keyboard-response","274","2.0.0","286046","pbs040o3uvc","moose","null","stimuli/field_52.jpg","null","field","C","non-repeat","null","242","stimuli/field_52.jpg","","","","",""
"","","","","","image-keyboard-response","275","2.0.0","287055","pbs040o3uvc","moose","null","stimuli/bar_4.jpg","null","bar","D","non-repeat","null","243","stimuli/bar_4.jpg","","","","",""
"","","","","","image-keyboard-response","276","2.0.0","288064","pbs040o3uvc","moose","null","stimuli/coast_52.jpg","null","coast","E","non-repeat","null","244","stimuli/coast_52.jpg","","","","",""
"","","","","","image-keyboard-response","277","2.0.0","289071","pbs040o3uvc","moose","null","stimuli/gym_26.jpg","null","gym","F","non-repeat","null","245","stimuli/gym_26.jpg","","","","",""
"","","","","","image-keyboard-response","278","2.0.0","290088","pbs040o3uvc","moose","null","stimuli/bridge_12.jpg","null","bridge","G","non-repeat","null","246","stimuli/bridge_12.jpg","","","","",""
"","","","","","image-keyboard-response","279","2.0.0","291091","pbs040o3uvc","moose","null","stimuli/kitchen_47.jpg","null","kitchen","H","non-repeat","null","247","stimuli/kitchen_47.jpg","","","","",""
"","","","","","image-keyboard-response","280","2.0.0","292111","pbs040o3uvc","moose","null","stimuli/woods_24.jpg","null","woods","I","non-repeat","null","248","stimuli/woods_24.jpg","","","","",""
"","","","","","image-keyboard-response","281","2.0.0","293127","pbs040o3uvc","moose","null","stimuli/bar_4.jpg","null","bar","D","non-repeat","null","249","stimuli/bar_4.jpg","","","","",""
"","","","","","image-keyboard-response","282","2.0.0","294143","pbs040o3uvc","moose","509","stimuli/bar_4.jpg"," ","bar","D","repeat"," ","249","","","","","",""
"","","","","","image-keyboard-response","283","2.0.0","295149","pbs040o3uvc","moose","null","stimuli/coast_52.jpg","null","coast","E","non-repeat","null","250","stimuli/coast_52.jpg","","","","",""
"","","","","","image-keyboard-response","284","2.0.0","296157","pbs040o3uvc","moose","null","stimuli/gym_26.jpg","null","gym","F","non-repeat","null","251","stimuli/gym_26.jpg","","","","",""
"","","","","","image-keyboard-response","285","2.0.0","297168","pbs040o3uvc","moose","null","stimuli/bathroom_44.jpg","null","bathroom","J","non-repeat","null","252","stimuli/bathroom_44.jpg","","","","",""
"","","","","","image-keyboard-response","286","2.0.0","298182","pbs040o3uvc","moose","null","stimuli/stream_20.jpg","null","stream","K","non-repeat","null","253","stimuli/stream_20.jpg","","","","",""
"","","","","","image-keyboard-response","287","2.0.0","299188","pbs040o3uvc","moose","null","stimuli/desert_28.jpg","null","desert","L","non-repeat","null","254","stimuli/desert_28.jpg","","","","",""
"","","","","","image-keyboard-response","288","2.0.0","300201","pbs040o3uvc","moose","446","stimuli/desert_28.jpg"," ","desert","L","repeat"," ","254","","","","","",""
"","","","","","image-keyboard-response","289","2.0.0","301214","pbs040o3uvc","moose","null","stimuli/bridge_12.jpg","null","bridge","G","non-repeat","null","255","stimuli/bridge_12.jpg","","","","",""
"","","","","","image-keyboard-response","290","2.0.0","302217","pbs040o3uvc","moose","null","stimuli/kitchen_47.jpg","null","kitchen","H","non-repeat","null","256","stimuli/kitchen_47.jpg","","","","",""
"","","","","","image-keyboard-response","291","2.0.0","303223","pbs040o3uvc","moose","null","stimuli/woods_24.jpg","null","woods","I","non-repeat","null","257","stimuli/woods_24.jpg","","","","",""
"","","","","","image-keyboard-response","292","2.0.0","304228","pbs040o3uvc","moose","null","stimuli/playground_4.jpg","null","playground","A","non-repeat","null","258","stimuli/playground_4.jpg","","","","",""
"","","","","","image-keyboard-response","293","2.0.0","305234","pbs040o3uvc","moose","789","stimuli/playground_4.jpg"," ","playground","A","repeat"," ","258","","","","","",""
"","","","","","image-keyboard-response","294","2.0.0","306243","pbs040o3uvc","moose","null","stimuli/street_9.jpg","null","street","B","non-repeat","null","259","stimuli/street_9.jpg","","","","",""
"","","","","","image-keyboard-response","295","2.0.0","307247","pbs040o3uvc","moose","null","stimuli/field_52.jpg","null","field","C","non-repeat","null","260","stimuli/field_52.jpg","","","","",""
"","","","","","image-keyboard-response","296","2.0.0","308252","pbs040o3uvc","moose","null","stimuli/bridge_12.jpg","null","bridge","G","non-repeat","null","261","stimuli/bridge_12.jpg","","","","",""
"","","","","","image-keyboard-response","297","2.0.0","309261","pbs040o3uvc","moose","null","stimuli/kitchen_47.jpg","null","kitchen","H","non-repeat","null","262","stimuli/kitchen_47.jpg","","","","",""
"","","","","","image-keyboard-response","298","2.0.0","310274","pbs040o3uvc","moose","null","stimuli/woods_24.jpg","null","woods","I","non-repeat","null","263","stimuli/woods_24.jpg","","","","",""
"","","","","","image-keyboard-response","299","2.0.0","311291","pbs040o3uvc","moose","null","stimuli/playground_4.jpg","null","playground","A","non-repeat","null","264","stimuli/playground_4.jpg","","","","",""
"","","","","","image-keyboard-response","300","2.0.0","312296","pbs040o3uvc","moose","null","stimuli/street_9.jpg","null","street","B","non-repeat","null","265","stimuli/street_9.jpg","","","","",""
"","","","","","image-keyboard-response","301","2.0.0","313298","pbs040o3uvc","moose","null","stimuli/field_52.jpg","null","field","C","non-repeat","null","266","stimuli/field_52.jpg","","","","",""
"","","","","","image-keyboard-response","302","2.0.0","314313","pbs040o3uvc","moose","null","stimuli/bridge_12.jpg","null","bridge","G","non-repeat","null","267","stimuli/bridge_12.jpg","","","","",""
"","","","","","image-keyboard-response","303","2.0.0","315330","pbs040o3uvc","moose","null","stimuli/kitchen_47.jpg","null","kitchen","H","non-repeat","null","268","stimuli/kitchen_47.jpg","","","","",""
"","","","","","image-keyboard-response","304","2.0.0","316346","pbs040o3uvc","moose","null","stimuli/woods_24.jpg","null","woods","I","non-repeat","null","269","stimuli/woods_24.jpg","","","","",""
"","","","","","image-keyboard-response","305","2.0.0","317358","pbs040o3uvc","moose","null","stimuli/playground_4.jpg","null","playground","A","non-repeat","null","270","stimuli/playground_4.jpg","","","","",""
"","","","","","image-keyboard-response","306","2.0.0","318364","pbs040o3uvc","moose","null","stimuli/street_9.jpg","null","street","B","non-repeat","null","271","stimuli/street_9.jpg","","","","",""
"","","","","","image-keyboard-response","307","2.0.0","319373","pbs040o3uvc","moose","null","stimuli/field_52.jpg","null","field","C","non-repeat","null","272","stimuli/field_52.jpg","","","","",""
"","","","","","image-keyboard-response","308","2.0.0","320386","pbs040o3uvc","moose","null","stimuli/field_52.jpg","null","field","C","repeat"," ","272","","","","","",""
"","","","","","image-keyboard-response","309","2.0.0","321390","pbs040o3uvc","moose","null","stimuli/bridge_12.jpg","null","bridge","G","non-repeat","null","273","stimuli/bridge_12.jpg","","","","",""
"","","","","","image-keyboard-response","310","2.0.0","322404","pbs040o3uvc","moose","null","stimuli/kitchen_47.jpg","null","kitchen","H","non-repeat","null","274","stimuli/kitchen_47.jpg","","","","",""
"","","","","","image-keyboard-response","311","2.0.0","323413","pbs040o3uvc","moose","null","stimuli/woods_24.jpg","null","woods","I","non-repeat","null","275","stimuli/woods_24.jpg","","","","",""
"","","","","","image-keyboard-response","312","2.0.0","324424","pbs040o3uvc","moose","null","stimuli/bar_4.jpg","null","bar","D","non-repeat","null","276","stimuli/bar_4.jpg","","","","",""
"","","","","","image-keyboard-response","313","2.0.0","325426","pbs040o3uvc","moose","557","stimuli/bar_4.jpg"," ","bar","D","repeat"," ","276","","","","","",""
"","","","","","image-keyboard-response","314","2.0.0","326432","pbs040o3uvc","moose","null","stimuli/coast_52.jpg","null","coast","E","non-repeat","null","277","stimuli/coast_52.jpg","","","","",""
"","","","","","image-keyboard-response","315","2.0.0","327449","pbs040o3uvc","moose","null","stimuli/gym_26.jpg","null","gym","F","non-repeat","null","278","stimuli/gym_26.jpg","","","","",""
"","","","","","image-keyboard-response","316","2.0.0","328460","pbs040o3uvc","moose","null","stimuli/bathroom_44.jpg","null","bathroom","J","non-repeat","null","279","stimuli/bathroom_44.jpg","","","","",""
"","","","","","image-keyboard-response","317","2.0.0","329470","pbs040o3uvc","moose","null","stimuli/bathroom_44.jpg","null","bathroom","J","repeat"," ","279","","","","","",""
"","","","","","image-keyboard-response","318","2.0.0","330476","pbs040o3uvc","moose","null","stimuli/stream_20.jpg","null","stream","K","non-repeat","null","280","stimuli/stream_20.jpg","","","","",""
"","","","","","image-keyboard-response","319","2.0.0","331486","pbs040o3uvc","moose","null","stimuli/desert_28.jpg","null","desert","L","non-repeat","null","281","stimuli/desert_28.jpg","","","","",""
"","","","","","image-keyboard-response","320","2.0.0","332503","pbs040o3uvc","moose","null","stimuli/bar_4.jpg","null","bar","D","non-repeat","null","282","stimuli/bar_4.jpg","","","","",""
"","","","","","image-keyboard-response","321","2.0.0","333511","pbs040o3uvc","moose","null","stimuli/coast_52.jpg","null","coast","E","non-repeat","null","283","stimuli/coast_52.jpg","","","","",""
"","","","","","image-keyboard-response","322","2.0.0","334518","pbs040o3uvc","moose","null","stimuli/gym_26.jpg","null","gym","F","non-repeat","null","284","stimuli/gym_26.jpg","","","","",""
"","","","","","image-keyboard-response","323","2.0.0","335531","pbs040o3uvc","moose","null","stimuli/bathroom_44.jpg","null","bathroom","J","non-repeat","null","285","stimuli/bathroom_44.jpg","","","","",""
"","","","","","image-keyboard-response","324","2.0.0","336537","pbs040o3uvc","moose","641","stimuli/bathroom_44.jpg"," ","bathroom","J","repeat"," ","285","","","","","",""
"","","","","","image-keyboard-response","325","2.0.0","337540","pbs040o3uvc","moose","null","stimuli/stream_20.jpg","null","stream","K","non-repeat","null","286","stimuli/stream_20.jpg","","","","",""
"","","","","","image-keyboard-response","326","2.0.0","338555","pbs040o3uvc","moose","null","stimuli/desert_28.jpg","null","desert","L","non-repeat","null","287","stimuli/desert_28.jpg","","","","",""
"","","","","","image-keyboard-response","327","2.0.0","339565","pbs040o3uvc","moose","null","stimuli/playground_4.jpg","null","playground","A","non-repeat","null","288","stimuli/playground_4.jpg","","","","",""
"","","","","","image-keyboard-response","328","2.0.0","340573","pbs040o3uvc","moose","null","stimuli/street_9.jpg","null","street","B","non-repeat","null","289","stimuli/street_9.jpg","","","","",""
"","","","","","image-keyboard-response","329","2.0.0","341588","pbs040o3uvc","moose","null","stimuli/field_52.jpg","null","field","C","non-repeat","null","290","stimuli/field_52.jpg","","","","",""
"","","","","","image-keyboard-response","330","2.0.0","342594","pbs040o3uvc","moose","null","stimuli/bathroom_44.jpg","null","bathroom","J","non-repeat","null","291","stimuli/bathroom_44.jpg","","","","",""
"","","","","","image-keyboard-response","331","2.0.0","343606","pbs040o3uvc","moose","null","stimuli/stream_20.jpg","null","stream","K","non-repeat","null","292","stimuli/stream_20.jpg","","","","",""
"","","","","","image-keyboard-response","332","2.0.0","344612","pbs040o3uvc","moose","null","stimuli/desert_28.jpg","null","desert","L","non-repeat","null","293","stimuli/desert_28.jpg","","","","",""
"","","","","","image-keyboard-response","333","2.0.0","345615","pbs040o3uvc","moose","null","stimuli/bar_4.jpg","null","bar","D","non-repeat","null","294","stimuli/bar_4.jpg","","","","",""
"","","","","","image-keyboard-response","334","2.0.0","346630","pbs040o3uvc","moose","null","stimuli/coast_52.jpg","null","coast","E","non-repeat","null","295","stimuli/coast_52.jpg","","","","",""
"","","","","","image-keyboard-response","335","2.0.0","347646","pbs040o3uvc","moose","null","stimuli/gym_26.jpg","null","gym","F","non-repeat","null","296","stimuli/gym_26.jpg","","","","",""
"","","","","","image-keyboard-response","336","2.0.0","348654","pbs040o3uvc","moose","null","stimuli/bathroom_44.jpg","null","bathroom","J","non-repeat","null","297","stimuli/bathroom_44.jpg","","","","",""
"","","","","","image-keyboard-response","337","2.0.0","349662","pbs040o3uvc","moose","null","stimuli/stream_20.jpg","null","stream","K","non-repeat","null","298","stimuli/stream_20.jpg","","","","",""
"","","","","","image-keyboard-response","338","2.0.0","350674","pbs040o3uvc","moose","null","stimuli/desert_28.jpg","null","desert","L","non-repeat","null","299","stimuli/desert_28.jpg","","","","",""
"","","","","","image-keyboard-response","339","2.0.0","351682","pbs040o3uvc","moose","null","stimuli/desert_28.jpg","null","desert","L","repeat"," ","299","","","","","",""
"","","","","","image-keyboard-response","340","2.0.0","352693","pbs040o3uvc","moose","null","stimuli/playground_4.jpg","null","playground","A","non-repeat","null","300","stimuli/playground_4.jpg","","","","",""
"","","","","","image-keyboard-response","341","2.0.0","353703","pbs040o3uvc","moose","null","stimuli/street_9.jpg","null","street","B","non-repeat","null","301","stimuli/street_9.jpg","","","","",""
"","","","","","image-keyboard-response","342","2.0.0","354721","pbs040o3uvc","moose","null","stimuli/field_52.jpg","null","field","C","non-repeat","null","302","stimuli/field_52.jpg","","","","",""
"","","","","","image-keyboard-response","343","2.0.0","355724","pbs040o3uvc","moose","null","stimuli/bar_4.jpg","null","bar","D","non-repeat","null","303","stimuli/bar_4.jpg","","","","",""
"","","","","","image-keyboard-response","344","2.0.0","356739","pbs040o3uvc","moose","583","stimuli/bar_4.jpg"," ","bar","D","repeat"," ","303","","","","","",""
"","","","","","image-keyboard-response","345","2.0.0","357746","pbs040o3uvc","moose","null","stimuli/coast_52.jpg","null","coast","E","non-repeat","null","304","stimuli/coast_52.jpg","","","","",""
"","","","","","image-keyboard-response","346","2.0.0","358762","pbs040o3uvc","moose","null","stimuli/gym_26.jpg","null","gym","F","non-repeat","null","305","stimuli/gym_26.jpg","","","","",""
"","","","","","image-keyboard-response","347","2.0.0","359780","pbs040o3uvc","moose","734","stimuli/gym_26.jpg"," ","gym","F","repeat"," ","305","","","","","",""
"","","","","","image-keyboard-response","348","2.0.0","360785","pbs040o3uvc","moose","null","stimuli/bathroom_44.jpg","null","bathroom","J","non-repeat","null","306","stimuli/bathroom_44.jpg","","","","",""
"","","","","","image-keyboard-response","349","2.0.0","361796","pbs040o3uvc","moose","490","stimuli/bathroom_44.jpg"," ","bathroom","J","repeat"," ","306","","","","","",""
"","","","","","image-keyboard-response","350","2.0.0","362815","pbs040o3uvc","moose","null","stimuli/stream_20.jpg","null","stream","K","non-repeat","null","307","stimuli/stream_20.jpg","","","","",""
"","","","","","image-keyboard-response","351","2.0.0","363826","pbs040o3uvc","moose","null","stimuli/desert_28.jpg","null","desert","L","non-repeat","null","308","stimuli/desert_28.jpg","","","","",""
"","","","","","image-keyboard-response","352","2.0.0","364832","pbs040o3uvc","moose","524","stimuli/desert_28.jpg"," ","desert","L","repeat"," ","308","","","","","",""
"","","","","","image-keyboard-response","353","2.0.0","365839","pbs040o3uvc","moose","null","stimuli/playground_4.jpg","null","playground","A","non-repeat","null","309","stimuli/playground_4.jpg","","","","",""
"","","","","","image-keyboard-response","354","2.0.0","366845","pbs040o3uvc","moose","null","stimuli/street_9.jpg","null","street","B","non-repeat","null","310","stimuli/street_9.jpg","","","","",""
"","","","","","image-keyboard-response","355","2.0.0","367850","pbs040o3uvc","moose","null","stimuli/field_52.jpg","null","field","C","non-repeat","null","311","stimuli/field_52.jpg","","","","",""
"","","","","","image-keyboard-response","356","2.0.0","368862","pbs040o3uvc","moose","null","stimuli/bridge_12.jpg","null","bridge","G","non-repeat","null","312","stimuli/bridge_12.jpg","","","","",""
"","","","","","image-keyboard-response","357","2.0.0","369865","pbs040o3uvc","moose","482","stimuli/bridge_12.jpg"," ","bridge","G","repeat"," ","312","","","","","",""
"","","","","","image-keyboard-response","358","2.0.0","370878","pbs040o3uvc","moose","null","stimuli/kitchen_47.jpg","null","kitchen","H","non-repeat","null","313","stimuli/kitchen_47.jpg","","","","",""
"","","","","","image-keyboard-response","359","2.0.0","371889","pbs040o3uvc","moose","null","stimuli/woods_24.jpg","null","woods","I","non-repeat","null","314","stimuli/woods_24.jpg","","","","",""
"","","","","","image-keyboard-response","360","2.0.0","372896","pbs040o3uvc","moose","526","stimuli/woods_24.jpg"," ","woods","I","repeat"," ","314","","","","","",""
"","","","","","image-keyboard-response","361","2.0.0","373915","pbs040o3uvc","moose","null","stimuli/bathroom_44.jpg","null","bathroom","J","non-repeat","null","315","stimuli/bathroom_44.jpg","","","","",""
"","","","","","image-keyboard-response","362","2.0.0","374926","pbs040o3uvc","moose","null","stimuli/stream_20.jpg","null","stream","K","non-repeat","null","316","stimuli/stream_20.jpg","","","","",""
"","","","","","image-keyboard-response","363","2.0.0","375931","pbs040o3uvc","moose","null","stimuli/desert_28.jpg","null","desert","L","non-repeat","null","317","stimuli/desert_28.jpg","","","","",""
"","","","","","image-keyboard-response","364","2.0.0","376941","pbs040o3uvc","moose","null","stimuli/bar_4.jpg","null","bar","D","non-repeat","null","318","stimuli/bar_4.jpg","","","","",""
"","","","","","image-keyboard-response","365","2.0.0","377951","pbs040o3uvc","moose","null","stimuli/coast_52.jpg","null","coast","E","non-repeat","null","319","stimuli/coast_52.jpg","","","","",""
"","","","","","image-keyboard-response","366","2.0.0","378968","pbs040o3uvc","moose","null","stimuli/gym_26.jpg","null","gym","F","non-repeat","null","320","stimuli/gym_26.jpg","","","","",""
"","","","","","image-keyboard-response","367","2.0.0","379985","pbs040o3uvc","moose","null","stimuli/bridge_12.jpg","null","bridge","G","non-repeat","null","321","stimuli/bridge_12.jpg","","","","",""
"","","","","","image-keyboard-response","368","2.0.0","380992","pbs040o3uvc","moose","null","stimuli/kitchen_47.jpg","null","kitchen","H","non-repeat","null","322","stimuli/kitchen_47.jpg","","","","",""
"","","","","","image-keyboard-response","369","2.0.0","382008","pbs040o3uvc","moose","null","stimuli/woods_24.jpg","null","woods","I","non-repeat","null","323","stimuli/woods_24.jpg","","","","",""
"","","","","","image-keyboard-response","370","2.0.0","383023","pbs040o3uvc","moose","null","stimuli/bar_4.jpg","null","bar","D","non-repeat","null","324","stimuli/bar_4.jpg","","","","",""
"","","","","","image-keyboard-response","371","2.0.0","384038","pbs040o3uvc","moose","null","stimuli/coast_52.jpg","null","coast","E","non-repeat","null","325","stimuli/coast_52.jpg","","","","",""
"","","","","","image-keyboard-response","372","2.0.0","385045","pbs040o3uvc","moose","null","stimuli/gym_26.jpg","null","gym","F","non-repeat","null","326","stimuli/gym_26.jpg","","","","",""
"","","","","","image-keyboard-response","373","2.0.0","386057","pbs040o3uvc","moose","null","stimuli/bridge_12.jpg","null","bridge","G","non-repeat","null","327","stimuli/bridge_12.jpg","","","","",""
"","","","","","image-keyboard-response","374","2.0.0","387070","pbs040o3uvc","moose","null","stimuli/kitchen_47.jpg","null","kitchen","H","non-repeat","null","328","stimuli/kitchen_47.jpg","","","","",""
"","","","","","image-keyboard-response","375","2.0.0","388086","pbs040o3uvc","moose","null","stimuli/woods_24.jpg","null","woods","I","non-repeat","null","329","stimuli/woods_24.jpg","","","","",""
"","","","","","image-keyboard-response","376","2.0.0","389095","pbs040o3uvc","moose","441","stimuli/woods_24.jpg"," ","woods","I","repeat"," ","329","","","","","",""
"","","","","","image-keyboard-response","377","2.0.0","390104","pbs040o3uvc","moose","null","stimuli/playground_4.jpg","null","playground","A","non-repeat","null","330","stimuli/playground_4.jpg","","","","",""
"","","","","","image-keyboard-response","378","2.0.0","391114","pbs040o3uvc","moose","560","stimuli/playground_4.jpg"," ","playground","A","repeat"," ","330","","","","","",""
"","","","","","image-keyboard-response","379","2.0.0","392126","pbs040o3uvc","moose","null","stimuli/street_9.jpg","null","street","B","non-repeat","null","331","stimuli/street_9.jpg","","","","",""
"","","","","","image-keyboard-response","380","2.0.0","393129","pbs040o3uvc","moose","null","stimuli/field_52.jpg","null","field","C","non-repeat","null","332","stimuli/field_52.jpg","","","","",""
"","","","","","image-keyboard-response","381","2.0.0","394140","pbs040o3uvc","moose","null","stimuli/bridge_12.jpg","null","bridge","G","non-repeat","null","333","stimuli/bridge_12.jpg","","","","",""
"","","","","","image-keyboard-response","382","2.0.0","395147","pbs040o3uvc","moose","520","stimuli/bridge_12.jpg"," ","bridge","G","repeat"," ","333","","","","","",""
"","","","","","image-keyboard-response","383","2.0.0","396152","pbs040o3uvc","moose","null","stimuli/kitchen_47.jpg","null","kitchen","H","non-repeat","null","334","stimuli/kitchen_47.jpg","","","","",""
"","","","","","image-keyboard-response","384","2.0.0","397170","pbs040o3uvc","moose","null","stimuli/woods_24.jpg","null","woods","I","non-repeat","null","335","stimuli/woods_24.jpg","","","","",""
"","","","","","image-keyboard-response","385","2.0.0","398177","pbs040o3uvc","moose","null","stimuli/bathroom_44.jpg","null","bathroom","J","non-repeat","null","336","stimuli/bathroom_44.jpg","","","","",""
"","","","","","image-keyboard-response","386","2.0.0","399180","pbs040o3uvc","moose","null","stimuli/stream_20.jpg","null","stream","K","non-repeat","null","337","stimuli/stream_20.jpg","","","","",""
"","","","","","image-keyboard-response","387","2.0.0","400190","pbs040o3uvc","moose","null","stimuli/desert_28.jpg","null","desert","L","non-repeat","null","338","stimuli/desert_28.jpg","","","","",""
"","","","","","image-keyboard-response","388","2.0.0","401199","pbs040o3uvc","moose","null","stimuli/bar_4.jpg","null","bar","D","non-repeat","null","339","stimuli/bar_4.jpg","","","","",""
"","","","","","image-keyboard-response","389","2.0.0","402202","pbs040o3uvc","moose","null","stimuli/coast_52.jpg","null","coast","E","non-repeat","null","340","stimuli/coast_52.jpg","","","","",""
"","","","","","image-keyboard-response","390","2.0.0","403208","pbs040o3uvc","moose","null","stimuli/gym_26.jpg","null","gym","F","non-repeat","null","341","stimuli/gym_26.jpg","","","","",""
"","","","","","image-keyboard-response","391","2.0.0","404225","pbs040o3uvc","moose","677","stimuli/gym_26.jpg"," ","gym","F","repeat"," ","341","","","","","",""
"","","","","","image-keyboard-response","392","2.0.0","405242","pbs040o3uvc","moose","null","stimuli/playground_4.jpg","null","playground","A","non-repeat","null","342","stimuli/playground_4.jpg","","","","",""
"","","","","","image-keyboard-response","393","2.0.0","406251","pbs040o3uvc","moose","null","stimuli/street_9.jpg","null","street","B","non-repeat","null","343","stimuli/street_9.jpg","","","","",""
"","","","","","image-keyboard-response","394","2.0.0","407262","pbs040o3uvc","moose","null","stimuli/field_52.jpg","null","field","C","non-repeat","null","344","stimuli/field_52.jpg","","","","",""
"","","","","","image-keyboard-response","395","2.0.0","408270","pbs040o3uvc","moose","null","stimuli/bridge_12.jpg","null","bridge","G","non-repeat","null","345","stimuli/bridge_12.jpg","","","","",""
"","","","","","image-keyboard-response","396","2.0.0","409274","pbs040o3uvc","moose","null","stimuli/kitchen_47.jpg","null","kitchen","H","non-repeat","null","346","stimuli/kitchen_47.jpg","","","","",""
"","","","","","image-keyboard-response","397","2.0.0","410287","pbs040o3uvc","moose","null","stimuli/woods_24.jpg","null","woods","I","non-repeat","null","347","stimuli/woods_24.jpg","","","","",""
"","","","","","image-keyboard-response","398","2.0.0","411297","pbs040o3uvc","moose","468","stimuli/woods_24.jpg"," ","woods","I","repeat"," ","347","","","","","",""
"","","","","","image-keyboard-response","399","2.0.0","412305","pbs040o3uvc","moose","null","stimuli/playground_4.jpg","null","playground","A","non-repeat","null","348","stimuli/playground_4.jpg","","","","",""
"","","","","","image-keyboard-response","400","2.0.0","413315","pbs040o3uvc","moose","null","stimuli/street_9.jpg","null","street","B","non-repeat","null","349","stimuli/street_9.jpg","","","","",""
"","","","","","image-keyboard-response","401","2.0.0","414321","pbs040o3uvc","moose","null","stimuli/field_52.jpg","null","field","C","non-repeat","null","350","stimuli/field_52.jpg","","","","",""
"","","","","","image-keyboard-response","402","2.0.0","415329","pbs040o3uvc","moose","null","stimuli/bar_4.jpg","null","bar","D","non-repeat","null","351","stimuli/bar_4.jpg","","","","",""
"","","","","","image-keyboard-response","403","2.0.0","416346","pbs040o3uvc","moose","null","stimuli/coast_52.jpg","null","coast","E","non-repeat","null","352","stimuli/coast_52.jpg","","","","",""
"","","","","","image-keyboard-response","404","2.0.0","417360","pbs040o3uvc","moose","null","stimuli/gym_26.jpg","null","gym","F","non-repeat","null","353","stimuli/gym_26.jpg","","","","",""
"","","","","","image-keyboard-response","405","2.0.0","418375","pbs040o3uvc","moose","null","stimuli/bathroom_44.jpg","null","bathroom","J","non-repeat","null","354","stimuli/bathroom_44.jpg","","","","",""
"","","","","","image-keyboard-response","406","2.0.0","419383","pbs040o3uvc","moose","null","stimuli/stream_20.jpg","null","stream","K","non-repeat","null","355","stimuli/stream_20.jpg","","","","",""
"","","","","","image-keyboard-response","407","2.0.0","420400","pbs040o3uvc","moose","null","stimuli/desert_28.jpg","null","desert","L","non-repeat","null","356","stimuli/desert_28.jpg","","","","",""
"","","","","","image-keyboard-response","408","2.0.0","421418","pbs040o3uvc","moose","null","stimuli/bar_4.jpg","null","bar","D","non-repeat","null","357","stimuli/bar_4.jpg","","","","",""
"","","","","","image-keyboard-response","409","2.0.0","422428","pbs040o3uvc","moose","619","stimuli/bar_4.jpg"," ","bar","D","repeat"," ","357","","","","","",""
"","","","","","image-keyboard-response","410","2.0.0","423439","pbs040o3uvc","moose","null","stimuli/coast_52.jpg","null","coast","E","non-repeat","null","358","stimuli/coast_52.jpg","","","","",""
"","","","","","image-keyboard-response","411","2.0.0","424448","pbs040o3uvc","moose","null","stimuli/gym_26.jpg","null","gym","F","non-repeat","null","359","stimuli/gym_26.jpg","","","","",""
"","","","","","image-keyboard-response","412","2.0.0","425456","pbs040o3uvc","moose","639","stimuli/gym_26.jpg"," ","gym","F","repeat"," ","359","","","","","",""
"","","","","","image-keyboard-response","413","2.0.0","426459","pbs040o3uvc","moose","null","stimuli/playground_4.jpg","null","playground","A","non-repeat","null","360","stimuli/playground_4.jpg","","","","",""
"","","","","","image-keyboard-response","414","2.0.0","427465","pbs040o3uvc","moose","null","stimuli/street_9.jpg","null","street","B","non-repeat","null","361","stimuli/street_9.jpg","","","","",""
"","","","","","image-keyboard-response","415","2.0.0","428481","pbs040o3uvc","moose","null","stimuli/field_52.jpg","null","field","C","non-repeat","null","362","stimuli/field_52.jpg","","","","",""
"","","","","","image-keyboard-response","416","2.0.0","429491","pbs040o3uvc","moose","null","stimuli/bridge_12.jpg","null","bridge","G","non-repeat","null","363","stimuli/bridge_12.jpg","","","","",""
"","","","","","image-keyboard-response","417","2.0.0","430504","pbs040o3uvc","moose","null","stimuli/bridge_12.jpg","null","bridge","G","repeat"," ","363","","","","","",""
"","","","","","image-keyboard-response","418","2.0.0","431519","pbs040o3uvc","moose","null","stimuli/kitchen_47.jpg","null","kitchen","H","non-repeat","null","364","stimuli/kitchen_47.jpg","","","","",""
"","","","","","image-keyboard-response","419","2.0.0","432535","pbs040o3uvc","moose","null","stimuli/woods_24.jpg","null","woods","I","non-repeat","null","365","stimuli/woods_24.jpg","","","","",""
"","","","","","image-keyboard-response","420","2.0.0","433546","pbs040o3uvc","moose","781","stimuli/woods_24.jpg"," ","woods","I","repeat"," ","365","","","","","",""
"","","","","","image-keyboard-response","421","2.0.0","434551","pbs040o3uvc","moose","null","stimuli/playground_4.jpg","null","playground","A","non-repeat","null","366","stimuli/playground_4.jpg","","","","",""
"","","","","","image-keyboard-response","422","2.0.0","435564","pbs040o3uvc","moose","null","stimuli/street_9.jpg","null","street","B","non-repeat","null","367","stimuli/street_9.jpg","","","","",""
"","","","","","image-keyboard-response","423","2.0.0","436569","pbs040o3uvc","moose","null","stimuli/field_52.jpg","null","field","C","non-repeat","null","368","stimuli/field_52.jpg","","","","",""
"","","","","","image-keyboard-response","424","2.0.0","437585","pbs040o3uvc","moose","613","stimuli/field_52.jpg"," ","field","C","repeat"," ","368","","","","","",""
"","","","","","image-keyboard-response","425","2.0.0","438604","pbs040o3uvc","moose","null","stimuli/bar_4.jpg","null","bar","D","non-repeat","null","369","stimuli/bar_4.jpg","","","","",""
"","","","","","image-keyboard-response","426","2.0.0","439609","pbs040o3uvc","moose","444","stimuli/bar_4.jpg"," ","bar","D","repeat"," ","369","","","","","",""
"","","","","","image-keyboard-response","427","2.0.0","440621","pbs040o3uvc","moose","null","stimuli/coast_52.jpg","null","coast","E","non-repeat","null","370","stimuli/coast_52.jpg","","","","",""
"","","","","","image-keyboard-response","428","2.0.0","441631","pbs040o3uvc","moose","null","stimuli/gym_26.jpg","null","gym","F","non-repeat","null","371","stimuli/gym_26.jpg","","","","",""
"","","","","","image-keyboard-response","429","2.0.0","442642","pbs040o3uvc","moose","null","stimuli/bridge_12.jpg","null","bridge","G","non-repeat","null","372","stimuli/bridge_12.jpg","","","","",""
"","","","","","image-keyboard-response","430","2.0.0","443657","pbs040o3uvc","moose","544","stimuli/bridge_12.jpg"," ","bridge","G","repeat"," ","372","","","","","",""
"","","","","","image-keyboard-response","431","2.0.0","444661","pbs040o3uvc","moose","null","stimuli/kitchen_47.jpg","null","kitchen","H","non-repeat","null","373","stimuli/kitchen_47.jpg","","","","",""
"","","","","","image-keyboard-response","432","2.0.0","445676","pbs040o3uvc","moose","null","stimuli/woods_24.jpg","null","woods","I","non-repeat","null","374","stimuli/woods_24.jpg","","","","",""
"","","","","","image-keyboard-response","433","2.0.0","446687","pbs040o3uvc","moose","null","stimuli/bathroom_44.jpg","null","bathroom","J","non-repeat","null","375","stimuli/bathroom_44.jpg","","","","",""
"","","","","","image-keyboard-response","434","2.0.0","447702","pbs040o3uvc","moose","null","stimuli/stream_20.jpg","null","stream","K","non-repeat","null","376","stimuli/stream_20.jpg","","","","",""
"","","","","","image-keyboard-response","435","2.0.0","448712","pbs040o3uvc","moose","null","stimuli/desert_28.jpg","null","desert","L","non-repeat","null","377","stimuli/desert_28.jpg","","","","",""
"","","","","","image-keyboard-response","436","2.0.0","449725","pbs040o3uvc","moose","null","stimuli/playground_4.jpg","null","playground","A","non-repeat","null","378","stimuli/playground_4.jpg","","","","",""
"","","","","","image-keyboard-response","437","2.0.0","450740","pbs040o3uvc","moose","null","stimuli/street_9.jpg","null","street","B","non-repeat","null","379","stimuli/street_9.jpg","","","","",""
"","","","","","image-keyboard-response","438","2.0.0","451752","pbs040o3uvc","moose","null","stimuli/field_52.jpg","null","field","C","non-repeat","null","380","stimuli/field_52.jpg","","","","",""
"","","","","","image-keyboard-response","439","2.0.0","452757","pbs040o3uvc","moose","null","stimuli/bathroom_44.jpg","null","bathroom","J","non-repeat","null","381","stimuli/bathroom_44.jpg","","","","",""
"","","","","","image-keyboard-response","440","2.0.0","453772","pbs040o3uvc","moose","null","stimuli/stream_20.jpg","null","stream","K","non-repeat","null","382","stimuli/stream_20.jpg","","","","",""
"","","","","","image-keyboard-response","441","2.0.0","454788","pbs040o3uvc","moose","null","stimuli/desert_28.jpg","null","desert","L","non-repeat","null","383","stimuli/desert_28.jpg","","","","",""
"","","","","","image-keyboard-response","442","2.0.0","455793","pbs040o3uvc","moose","507","stimuli/desert_28.jpg"," ","desert","L","repeat"," ","383","","","","","",""
"","","","","","image-keyboard-response","443","2.0.0","456803","pbs040o3uvc","moose","null","stimuli/bridge_12.jpg","null","bridge","G","non-repeat","null","384","stimuli/bridge_12.jpg","","","","",""
"","","","","","image-keyboard-response","444","2.0.0","457808","pbs040o3uvc","moose","null","stimuli/kitchen_47.jpg","null","kitchen","H","non-repeat","null","385","stimuli/kitchen_47.jpg","","","","",""
"","","","","","image-keyboard-response","445","2.0.0","458816","pbs040o3uvc","moose","null","stimuli/woods_24.jpg","null","woods","I","non-repeat","null","386","stimuli/woods_24.jpg","","","","",""
"","","","","","image-keyboard-response","446","2.0.0","459825","pbs040o3uvc","moose","null","stimuli/playground_4.jpg","null","playground","A","non-repeat","null","387","stimuli/playground_4.jpg","","","","",""
"","","","","","image-keyboard-response","447","2.0.0","460833","pbs040o3uvc","moose","null","stimuli/street_9.jpg","null","street","B","non-repeat","null","388","stimuli/street_9.jpg","","","","",""
"","","","","","image-keyboard-response","448","2.0.0","461841","pbs040o3uvc","moose","null","stimuli/field_52.jpg","null","field","C","non-repeat","null","389","stimuli/field_52.jpg","","","","",""
"","","","","","html-keyboard-response","449","2.0.0","476815","pbs040o3uvc","moose","14972","
    <div style='width:900px;margin: auto;'><p>In the next part of the experiment, we want to see how well you learned the structure in the stream of images.</p>
    <p>On each trial, you will see two sequences of three images, sequence 1 and 2. We will ask you to indicate which sequence was more familiar based on the first part of the experiment.</p>
    <p>Press 1 if the first sequence (sequence 1) felt more familiar. Press 2 if the second sequence (sequence 2) felt more familiar.</p>
    <p>Press any key to begin.</p></div>"," ","","","","","","","","","","",""
"","","","","","html-keyboard-response","450","2.0.0","477821","pbs040o3uvc","moose","null","<p>Sequence 1</p>","null","","","","","","","","","","",""
"","","","","","image-keyboard-response","451","2.0.0","478839","pbs040o3uvc","moose","null","stimuli/bathroom_44.jpg","null","","","","","","","","","","",""
"","","","","","image-keyboard-response","452","2.0.0","479842","pbs040o3uvc","moose","null","stimuli/street_9.jpg","null","","","","","","","","","","",""
"","","","","","image-keyboard-response","453","2.0.0","480851","pbs040o3uvc","moose","null","stimuli/gym_26.jpg","null","","","","","","","","","","",""
"","","","","","html-keyboard-response","454","2.0.0","481867","pbs040o3uvc","moose","null","<p></p>","null","","","","","","","","","","",""
"","","","","","html-keyboard-response","455","2.0.0","482878","pbs040o3uvc","moose","null","<p>Sequence 2</p>","null","","","","","","","","","","",""
"","","","","","image-keyboard-response","456","2.0.0","483902","pbs040o3uvc","moose","null","stimuli/playground_4.jpg","null","","","","","","","","","","",""
"","","","","","image-keyboard-response","457","2.0.0","484908","pbs040o3uvc","moose","null","stimuli/street_9.jpg","null","","","","","","","","","","",""
"","","","","","image-keyboard-response","458","2.0.0","485917","pbs040o3uvc","moose","null","stimuli/field_52.jpg","null","","","","","","","","","","",""
"","","","","","html-keyboard-response","459","2.0.0","487302","pbs040o3uvc","moose","1384","<p>Press '1' if the first sequence was familiar, '2' if the second was.</p>","2","","","2","","","","[""A"",""B"",""C""]","[""J"",""B"",""F""]","true","[""<p>Sequence 1</p>"",""stimuli/bathroom_44.jpg"",""stimuli/street_9.jpg"",""stimuli/gym_26.jpg""]","[""<p>Sequence 2</p>"",""stimuli/playground_4.jpg"",""stimuli/street_9.jpg"",""stimuli/field_52.jpg""]"
"","","","","","html-keyboard-response","460","2.0.0","488315","pbs040o3uvc","moose","null","<p>Sequence 1</p>","null","","","","","","","","","","",""
"","","","","","image-keyboard-response","461","2.0.0","489319","pbs040o3uvc","moose","null","stimuli/bridge_12.jpg","null","","","","","","","","","","",""
"","","","","","image-keyboard-response","462","2.0.0","490329","pbs040o3uvc","moose","null","stimuli/stream_20.jpg","null","","","","","","","","","","",""
"","","","","","image-keyboard-response","463","2.0.0","491339","pbs040o3uvc","moose","null","stimuli/field_52.jpg","null","","","","","","","","","","",""
"","","","","","html-keyboard-response","464","2.0.0","492348","pbs040o3uvc","moose","null","<p></p>","null","","","","","","","","","","",""
"","","","","","html-keyboard-response","465","2.0.0","493353","pbs040o3uvc","moose","null","<p>Sequence 2</p>","null","","","","","","","","","","",""
"","","","","","image-keyboard-response","466","2.0.0","494356","pbs040o3uvc","moose","null","stimuli/playground_4.jpg","null","","","","","","","","","","",""
"","","","","","image-keyboard-response","467","2.0.0","495366","pbs040o3uvc","moose","null","stimuli/street_9.jpg","null","","","","","","","","","","",""
"","","","","","image-keyboard-response","468","2.0.0","496376","pbs040o3uvc","moose","null","stimuli/field_52.jpg","null","","","","","","","","","","",""
"","","","","","html-keyboard-response","469","2.0.0","497076","pbs040o3uvc","moose","699","<p>Press '1' if the first sequence was familiar, '2' if the second was.</p>","2","","","2","","","","[""A"",""B"",""C""]","[""G"",""K"",""C""]","true","[""<p>Sequence 1</p>"",""stimuli/bridge_12.jpg"",""stimuli/stream_20.jpg"",""stimuli/field_52.jpg""]","[""<p>Sequence 2</p>"",""stimuli/playground_4.jpg"",""stimuli/street_9.jpg"",""stimuli/field_52.jpg""]"
"","","","","","html-keyboard-response","470","2.0.0","498079","pbs040o3uvc","moose","null","<p>Sequence 1</p>","null","","","","","","","","","","",""
"","","","","","image-keyboard-response","471","2.0.0","499093","pbs040o3uvc","moose","null","stimuli/bar_4.jpg","null","","","","","","","","","","",""
"","","","","","image-keyboard-response","472","2.0.0","500099","pbs040o3uvc","moose","null","stimuli/coast_52.jpg","null","","","","","","","","","","",""
"","","","","","image-keyboard-response","473","2.0.0","501107","pbs040o3uvc","moose","null","stimuli/gym_26.jpg","null","","","","","","","","","","",""
"","","","","","html-keyboard-response","474","2.0.0","502111","pbs040o3uvc","moose","null","<p></p>","null","","","","","","","","","","",""
"","","","","","html-keyboard-response","475","2.0.0","503127","pbs040o3uvc","moose","null","<p>Sequence 2</p>","null","","","","","","","","","","",""
"","","","","","image-keyboard-response","476","2.0.0","504138","pbs040o3uvc","moose","null","stimuli/bar_4.jpg","null","","","","","","","","","","",""
"","","","","","image-keyboard-response","477","2.0.0","505141","pbs040o3uvc","moose","null","stimuli/kitchen_47.jpg","null","","","","","","","","","","",""
"","","","","","image-keyboard-response","478","2.0.0","506152","pbs040o3uvc","moose","null","stimuli/desert_28.jpg","null","","","","","","","","","","",""
"","","","","","html-keyboard-response","479","2.0.0","506830","pbs040o3uvc","moose","677","<p>Press '1' if the first sequence was familiar, '2' if the second was.</p>","1","","","1","","","","[""D"",""E"",""F""]","[""D"",""H"",""L""]","true","[""<p>Sequence 1</p>"",""stimuli/bar_4.jpg"",""stimuli/coast_52.jpg"",""stimuli/gym_26.jpg""]","[""<p>Sequence 2</p>"",""stimuli/bar_4.jpg"",""stimuli/kitchen_47.jpg"",""stimuli/desert_28.jpg""]"
"","","","","","html-keyboard-response","480","2.0.0","507846","pbs040o3uvc","moose","null","<p>Sequence 1</p>","null","","","","","","","","","","",""
"","","","","","image-keyboard-response","481","2.0.0","508851","pbs040o3uvc","moose","null","stimuli/bathroom_44.jpg","null","","","","","","","","","","",""
"","","","","","image-keyboard-response","482","2.0.0","509868","pbs040o3uvc","moose","null","stimuli/stream_20.jpg","null","","","","","","","","","","",""
"","","","","","image-keyboard-response","483","2.0.0","510875","pbs040o3uvc","moose","null","stimuli/desert_28.jpg","null","","","","","","","","","","",""
"","","","","","html-keyboard-response","484","2.0.0","511877","pbs040o3uvc","moose","null","<p></p>","null","","","","","","","","","","",""
"","","","","","html-keyboard-response","485","2.0.0","512886","pbs040o3uvc","moose","null","<p>Sequence 2</p>","null","","","","","","","","","","",""
"","","","","","image-keyboard-response","486","2.0.0","513901","pbs040o3uvc","moose","null","stimuli/bridge_12.jpg","null","","","","","","","","","","",""
"","","","","","image-keyboard-response","487","2.0.0","514920","pbs040o3uvc","moose","null","stimuli/stream_20.jpg","null","","","","","","","","","","",""
"","","","","","image-keyboard-response","488","2.0.0","515937","pbs040o3uvc","moose","null","stimuli/field_52.jpg","null","","","","","","","","","","",""
"","","","","","html-keyboard-response","489","2.0.0","516692","pbs040o3uvc","moose","754","<p>Press '1' if the first sequence was familiar, '2' if the second was.</p>","2","","","1","","","","[""J"",""K"",""L""]","[""G"",""K"",""C""]","false","[""<p>Sequence 1</p>"",""stimuli/bathroom_44.jpg"",""stimuli/stream_20.jpg"",""stimuli/desert_28.jpg""]","[""<p>Sequence 2</p>"",""stimuli/bridge_12.jpg"",""stimuli/stream_20.jpg"",""stimuli/field_52.jpg""]"
"","","","","","html-keyboard-response","490","2.0.0","517695","pbs040o3uvc","moose","null","<p>Sequence 1</p>","null","","","","","","","","","","",""
"","","","","","image-keyboard-response","491","2.0.0","518705","pbs040o3uvc","moose","null","stimuli/bridge_12.jpg","null","","","","","","","","","","",""
"","","","","","image-keyboard-response","492","2.0.0","519713","pbs040o3uvc","moose","null","stimuli/kitchen_47.jpg","null","","","","","","","","","","",""
"","","","","","image-keyboard-response","493","2.0.0","520730","pbs040o3uvc","moose","null","stimuli/woods_24.jpg","null","","","","","","","","","","",""
"","","","","","html-keyboard-response","494","2.0.0","521737","pbs040o3uvc","moose","null","<p></p>","null","","","","","","","","","","",""
"","","","","","html-keyboard-response","495","2.0.0","522746","pbs040o3uvc","moose","null","<p>Sequence 2</p>","null","","","","","","","","","","",""
"","","","","","image-keyboard-response","496","2.0.0","523759","pbs040o3uvc","moose","null","stimuli/bridge_12.jpg","null","","","","","","","","","","",""
"","","","","","image-keyboard-response","497","2.0.0","524765","pbs040o3uvc","moose","null","stimuli/stream_20.jpg","null","","","","","","","","","","",""
"","","","","","image-keyboard-response","498","2.0.0","525777","pbs040o3uvc","moose","null","stimuli/field_52.jpg","null","","","","","","","","","","",""
"","","","","","html-keyboard-response","499","2.0.0","526855","pbs040o3uvc","moose","1078","<p>Press '1' if the first sequence was familiar, '2' if the second was.</p>","1","","","1","","","","[""G"",""H"",""I""]","[""G"",""K"",""C""]","true","[""<p>Sequence 1</p>"",""stimuli/bridge_12.jpg"",""stimuli/kitchen_47.jpg"",""stimuli/woods_24.jpg""]","[""<p>Sequence 2</p>"",""stimuli/bridge_12.jpg"",""stimuli/stream_20.jpg"",""stimuli/field_52.jpg""]"
"","","","","","html-keyboard-response","500","2.0.0","527868","pbs040o3uvc","moose","null","<p>Sequence 1</p>","null","","","","","","","","","","",""
"","","","","","image-keyboard-response","501","2.0.0","528872","pbs040o3uvc","moose","null","stimuli/playground_4.jpg","null","","","","","","","","","","",""
"","","","","","image-keyboard-response","502","2.0.0","529879","pbs040o3uvc","moose","null","stimuli/coast_52.jpg","null","","","","","","","","","","",""
"","","","","","image-keyboard-response","503","2.0.0","530896","pbs040o3uvc","moose","null","stimuli/woods_24.jpg","null","","","","","","","","","","",""
"","","","","","html-keyboard-response","504","2.0.0","531899","pbs040o3uvc","moose","null","<p></p>","null","","","","","","","","","","",""
"","","","","","html-keyboard-response","505","2.0.0","532903","pbs040o3uvc","moose","null","<p>Sequence 2</p>","null","","","","","","","","","","",""
"","","","","","image-keyboard-response","506","2.0.0","533910","pbs040o3uvc","moose","null","stimuli/playground_4.jpg","null","","","","","","","","","","",""
