"success","rt","trial_type","trial_index","plugin_version","time_elapsed","random_id","participant","stimulus","response","timeout","failed_images","failed_audio","failed_video","category","letter","correct_response","correct_response_key","trial_counter","current_image","test_triplet","foil_triplet","correct","firstSequencePaths","secondSequencePaths"
"true","6024","fullscreen","0","null","7054","pbtb0o7fkvk","camel","","","","","","","","","","","","","","","","",""
"","331","html-keyboard-response","1","2.0.0","7386","pbtb0o7fkvk","camel","Welcome to the experiment. Press any key to begin.","Shift","","","","","","","","","","","","","","",""
"","1421","survey-text","2","2.0.0","8841","pbtb0o7fkvk","camel","","{""participant_id"":""camel""}","","","","","","","","","","","","","","",""
"","1892","html-keyboard-response","3","2.0.0","10736","pbtb0o7fkvk","camel","
  <p>For this trial, you will see a series of images.</p>
  <p>Press the spacebar whenever you see a repeat of an image back to back.</p>
  <p>Press any key to begin.</p>"," ","","","","","","","","","","","","","","",""
"true","","preload","4","2.0.0","11489","pbtb0o7fkvk","camel","","","false","[]","[]","[]","","","","","","","","","","",""
"","null","image-keyboard-response","5","2.0.0","12506","pbtb0o7fkvk","camel","stimuli/gym_24.jpg","null","","","","","gym","J","non-repeat","null","0","stimuli/gym_24.jpg","","","","",""
"","null","image-keyboard-response","6","2.0.0","13517","pbtb0o7fkvk","camel","stimuli/coast_64.jpg","null","","","","","coast","K","non-repeat","null","1","stimuli/coast_64.jpg","","","","",""
"","null","image-keyboard-response","7","2.0.0","14534","pbtb0o7fkvk","camel","stimuli/desert_63.jpg","null","","","","","desert","L","non-repeat","null","2","stimuli/desert_63.jpg","","","","",""
"","null","image-keyboard-response","8","2.0.0","15548","pbtb0o7fkvk","camel","stimuli/woods_42.jpg","null","","","","","woods","A","non-repeat","null","3","stimuli/woods_42.jpg","","","","",""
"","445","image-keyboard-response","9","2.0.0","16561","pbtb0o7fkvk","camel","stimuli/woods_42.jpg"," ","","","","","woods","A","repeat"," ","3","","","","","",""
"","null","image-keyboard-response","10","2.0.0","17575","pbtb0o7fkvk","camel","stimuli/bar_10.jpg","null","","","","","bar","B","non-repeat","null","4","stimuli/bar_10.jpg","","","","",""
"","null","image-keyboard-response","11","2.0.0","18592","pbtb0o7fkvk","camel","stimuli/bathroom_63.jpg","null","","","","","bathroom","C","non-repeat","null","5","stimuli/bathroom_63.jpg","","","","",""
"","null","image-keyboard-response","12","2.0.0","19597","pbtb0o7fkvk","camel","stimuli/gym_24.jpg","null","","","","","gym","J","non-repeat","null","6","stimuli/gym_24.jpg","","","","",""
"","null","image-keyboard-response","13","2.0.0","20600","pbtb0o7fkvk","camel","stimuli/coast_64.jpg","null","","","","","coast","K","non-repeat","null","7","stimuli/coast_64.jpg","","","","",""
"","null","image-keyboard-response","14","2.0.0","21606","pbtb0o7fkvk","camel","stimuli/desert_63.jpg","null","","","","","desert","L","non-repeat","null","8","stimuli/desert_63.jpg","","","","",""
"","null","image-keyboard-response","15","2.0.0","22609","pbtb0o7fkvk","camel","stimuli/woods_42.jpg","null","","","","","woods","A","non-repeat","null","9","stimuli/woods_42.jpg","","","","",""
"","null","image-keyboard-response","16","2.0.0","23616","pbtb0o7fkvk","camel","stimuli/bar_10.jpg","null","","","","","bar","B","non-repeat","null","10","stimuli/bar_10.jpg","","","","",""
"","null","image-keyboard-response","17","2.0.0","24626","pbtb0o7fkvk","camel","stimuli/bathroom_63.jpg","null","","","","","bathroom","C","non-repeat","null","11","stimuli/bathroom_63.jpg","","","","",""
"","693","image-keyboard-response","18","2.0.0","25637","pbtb0o7fkvk","camel","stimuli/bathroom_63.jpg"," ","","","","","bathroom","C","repeat"," ","11","","","","","",""
"","null","image-keyboard-response","19","2.0.0","26640","pbtb0o7fkvk","camel","stimuli/bridge_55.jpg","null","","","","","bridge","G","non-repeat","null","12","stimuli/bridge_55.jpg","","","","",""
"","412","image-keyboard-response","20","2.0.0","27657","pbtb0o7fkvk","camel","stimuli/bridge_55.jpg"," ","","","","","bridge","G","repeat"," ","12","","","","","",""
"","null","image-keyboard-response","21","2.0.0","28662","pbtb0o7fkvk","camel","stimuli/field_18.jpg","null","","","","","field","H","non-repeat","null","13","stimuli/field_18.jpg","","","","",""
"","null","image-keyboard-response","22","2.0.0","29667","pbtb0o7fkvk","camel","stimuli/playground_23.jpg","null","","","","","playground","I","non-repeat","null","14","stimuli/playground_23.jpg","","","","",""
"","null","image-keyboard-response","23","2.0.0","30673","pbtb0o7fkvk","camel","stimuli/woods_42.jpg","null","","","","","woods","A","non-repeat","null","15","stimuli/woods_42.jpg","","","","",""
"","498","image-keyboard-response","24","2.0.0","31679","pbtb0o7fkvk","camel","stimuli/woods_42.jpg"," ","","","","","woods","A","repeat"," ","15","","","","","",""
"","null","image-keyboard-response","25","2.0.0","32688","pbtb0o7fkvk","camel","stimuli/bar_10.jpg","null","","","","","bar","B","non-repeat","null","16","stimuli/bar_10.jpg","","","","",""
"","null","image-keyboard-response","26","2.0.0","33784","pbtb0o7fkvk","camel","stimuli/bathroom_63.jpg","null","","","","","bathroom","C","non-repeat","null","17","stimuli/bathroom_63.jpg","","","","",""
"","null","image-keyboard-response","27","2.0.0","34790","pbtb0o7fkvk","camel","stimuli/gym_24.jpg","null","","","","","gym","J","non-repeat","null","18","stimuli/gym_24.jpg","","","","",""
"","511","image-keyboard-response","28","2.0.0","35794","pbtb0o7fkvk","camel","stimuli/gym_24.jpg"," ","","","","","gym","J","repeat"," ","18","","","","","",""
"","null","image-keyboard-response","29","2.0.0","36797","pbtb0o7fkvk","camel","stimuli/coast_64.jpg","null","","","","","coast","K","non-repeat","null","19","stimuli/coast_64.jpg","","","","",""
"","null","image-keyboard-response","30","2.0.0","37805","pbtb0o7fkvk","camel","stimuli/desert_63.jpg","null","","","","","desert","L","non-repeat","null","20","stimuli/desert_63.jpg","","","","",""
"","391","image-keyboard-response","31","2.0.0","38806","pbtb0o7fkvk","camel","stimuli/desert_63.jpg"," ","","","","","desert","L","repeat"," ","20","","","","","",""
"","null","image-keyboard-response","32","2.0.0","39810","pbtb0o7fkvk","camel","stimuli/woods_42.jpg","null","","","","","woods","A","non-repeat","null","21","stimuli/woods_42.jpg","","","","",""
"","null","image-keyboard-response","33","2.0.0","40815","pbtb0o7fkvk","camel","stimuli/bar_10.jpg","null","","","","","bar","B","non-repeat","null","22","stimuli/bar_10.jpg","","","","",""
"","null","image-keyboard-response","34","2.0.0","41817","pbtb0o7fkvk","camel","stimuli/bathroom_63.jpg","null","","","","","bathroom","C","non-repeat","null","23","stimuli/bathroom_63.jpg","","","","",""
"","null","image-keyboard-response","35","2.0.0","42825","pbtb0o7fkvk","camel","stimuli/gym_24.jpg","null","","","","","gym","J","non-repeat","null","24","stimuli/gym_24.jpg","","","","",""
"","519","image-keyboard-response","36","2.0.0","43826","pbtb0o7fkvk","camel","stimuli/gym_24.jpg"," ","","","","","gym","J","repeat"," ","24","","","","","",""
"","null","image-keyboard-response","37","2.0.0","44841","pbtb0o7fkvk","camel","stimuli/coast_64.jpg","null","","","","","coast","K","non-repeat","null","25","stimuli/coast_64.jpg","","","","",""
"","null","image-keyboard-response","38","2.0.0","45846","pbtb0o7fkvk","camel","stimuli/desert_63.jpg","null","","","","","desert","L","non-repeat","null","26","stimuli/desert_63.jpg","","","","",""
"","null","image-keyboard-response","39","2.0.0","46857","pbtb0o7fkvk","camel","stimuli/woods_42.jpg","null","","","","","woods","A","non-repeat","null","27","stimuli/woods_42.jpg","","","","",""
"","null","image-keyboard-response","40","2.0.0","47865","pbtb0o7fkvk","camel","stimuli/bar_10.jpg","null","","","","","bar","B","non-repeat","null","28","stimuli/bar_10.jpg","","","","",""
"","null","image-keyboard-response","41","2.0.0","48868","pbtb0o7fkvk","camel","stimuli/bathroom_63.jpg","null","","","","","bathroom","C","non-repeat","null","29","stimuli/bathroom_63.jpg","","","","",""
"","null","image-keyboard-response","42","2.0.0","49878","pbtb0o7fkvk","camel","stimuli/bridge_55.jpg","null","","","","","bridge","G","non-repeat","null","30","stimuli/bridge_55.jpg","","","","",""
"","null","image-keyboard-response","43","2.0.0","50880","pbtb0o7fkvk","camel","stimuli/field_18.jpg","null","","","","","field","H","non-repeat","null","31","stimuli/field_18.jpg","","","","",""
"","null","image-keyboard-response","44","2.0.0","51887","pbtb0o7fkvk","camel","stimuli/playground_23.jpg","null","","","","","playground","I","non-repeat","null","32","stimuli/playground_23.jpg","","","","",""
"","601","image-keyboard-response","45","2.0.0","52896","pbtb0o7fkvk","camel","stimuli/playground_23.jpg"," ","","","","","playground","I","repeat"," ","32","","","","","",""
"","null","image-keyboard-response","46","2.0.0","53906","pbtb0o7fkvk","camel","stimuli/woods_42.jpg","null","","","","","woods","A","non-repeat","null","33","stimuli/woods_42.jpg","","","","",""
"","null","image-keyboard-response","47","2.0.0","54913","pbtb0o7fkvk","camel","stimuli/bar_10.jpg","null","","","","","bar","B","non-repeat","null","34","stimuli/bar_10.jpg","","","","",""
"","null","image-keyboard-response","48","2.0.0","55926","pbtb0o7fkvk","camel","stimuli/bathroom_63.jpg","null","","","","","bathroom","C","non-repeat","null","35","stimuli/bathroom_63.jpg","","","","",""
"","null","image-keyboard-response","49","2.0.0","56942","pbtb0o7fkvk","camel","stimuli/bridge_55.jpg","null","","","","","bridge","G","non-repeat","null","36","stimuli/bridge_55.jpg","","","","",""
"","null","image-keyboard-response","50","2.0.0","57955","pbtb0o7fkvk","camel","stimuli/field_18.jpg","null","","","","","field","H","non-repeat","null","37","stimuli/field_18.jpg","","","","",""
"","null","image-keyboard-response","51","2.0.0","58958","pbtb0o7fkvk","camel","stimuli/playground_23.jpg","null","","","","","playground","I","non-repeat","null","38","stimuli/playground_23.jpg","","","","",""
"","null","image-keyboard-response","52","2.0.0","60032","pbtb0o7fkvk","camel","stimuli/woods_42.jpg","null","","","","","woods","A","non-repeat","null","39","stimuli/woods_42.jpg","","","","",""
"","null","image-keyboard-response","53","2.0.0","61034","pbtb0o7fkvk","camel","stimuli/bar_10.jpg","null","","","","","bar","B","non-repeat","null","40","stimuli/bar_10.jpg","","","","",""
"","null","image-keyboard-response","54","2.0.0","62042","pbtb0o7fkvk","camel","stimuli/bathroom_63.jpg","null","","","","","bathroom","C","non-repeat","null","41","stimuli/bathroom_63.jpg","","","","",""
"","583","image-keyboard-response","55","2.0.0","63047","pbtb0o7fkvk","camel","stimuli/bathroom_63.jpg"," ","","","","","bathroom","C","repeat"," ","41","","","","","",""
"","null","image-keyboard-response","56","2.0.0","64054","pbtb0o7fkvk","camel","stimuli/bridge_55.jpg","null","","","","","bridge","G","non-repeat","null","42","stimuli/bridge_55.jpg","","","","",""
"","null","image-keyboard-response","57","2.0.0","65070","pbtb0o7fkvk","camel","stimuli/field_18.jpg","null","","","","","field","H","non-repeat","null","43","stimuli/field_18.jpg","","","","",""
"","null","image-keyboard-response","58","2.0.0","66075","pbtb0o7fkvk","camel","stimuli/playground_23.jpg","null","","","","","playground","I","non-repeat","null","44","stimuli/playground_23.jpg","","","","",""
"","null","image-keyboard-response","59","2.0.0","67078","pbtb0o7fkvk","camel","stimuli/gym_24.jpg","null","","","","","gym","J","non-repeat","null","45","stimuli/gym_24.jpg","","","","",""
"","null","image-keyboard-response","60","2.0.0","68091","pbtb0o7fkvk","camel","stimuli/coast_64.jpg","null","","","","","coast","K","non-repeat","null","46","stimuli/coast_64.jpg","","","","",""
"","null","image-keyboard-response","61","2.0.0","69107","pbtb0o7fkvk","camel","stimuli/desert_63.jpg","null","","","","","desert","L","non-repeat","null","47","stimuli/desert_63.jpg","","","","",""
"","467","image-keyboard-response","62","2.0.0","70110","pbtb0o7fkvk","camel","stimuli/desert_63.jpg"," ","","","","","desert","L","repeat"," ","47","","","","","",""
"","null","image-keyboard-response","63","2.0.0","71113","pbtb0o7fkvk","camel","stimuli/kitchen_29.jpg","null","","","","","kitchen","D","non-repeat","null","48","stimuli/kitchen_29.jpg","","","","",""
"","null","image-keyboard-response","64","2.0.0","72119","pbtb0o7fkvk","camel","stimuli/street_56.jpg","null","","","","","street","E","non-repeat","null","49","stimuli/street_56.jpg","","","","",""
"","null","image-keyboard-response","65","2.0.0","73131","pbtb0o7fkvk","camel","stimuli/stream_45.jpg","null","","","","","stream","F","non-repeat","null","50","stimuli/stream_45.jpg","","","","",""
"","null","image-keyboard-response","66","2.0.0","74147","pbtb0o7fkvk","camel","stimuli/woods_42.jpg","null","","","","","woods","A","non-repeat","null","51","stimuli/woods_42.jpg","","","","",""
"","null","image-keyboard-response","67","2.0.0","75162","pbtb0o7fkvk","camel","stimuli/bar_10.jpg","null","","","","","bar","B","non-repeat","null","52","stimuli/bar_10.jpg","","","","",""
"","null","image-keyboard-response","68","2.0.0","76167","pbtb0o7fkvk","camel","stimuli/bathroom_63.jpg","null","","","","","bathroom","C","non-repeat","null","53","stimuli/bathroom_63.jpg","","","","",""
"","null","image-keyboard-response","69","2.0.0","77172","pbtb0o7fkvk","camel","stimuli/kitchen_29.jpg","null","","","","","kitchen","D","non-repeat","null","54","stimuli/kitchen_29.jpg","","","","",""
"","null","image-keyboard-response","70","2.0.0","78185","pbtb0o7fkvk","camel","stimuli/street_56.jpg","null","","","","","street","E","non-repeat","null","55","stimuli/street_56.jpg","","","","",""
"","null","image-keyboard-response","71","2.0.0","79186","pbtb0o7fkvk","camel","stimuli/stream_45.jpg","null","","","","","stream","F","non-repeat","null","56","stimuli/stream_45.jpg","","","","",""
"","null","image-keyboard-response","72","2.0.0","80190","pbtb0o7fkvk","camel","stimuli/bridge_55.jpg","null","","","","","bridge","G","non-repeat","null","57","stimuli/bridge_55.jpg","","","","",""
"","null","image-keyboard-response","73","2.0.0","81196","pbtb0o7fkvk","camel","stimuli/field_18.jpg","null","","","","","field","H","non-repeat","null","58","stimuli/field_18.jpg","","","","",""
"","null","image-keyboard-response","74","2.0.0","82206","pbtb0o7fkvk","camel","stimuli/playground_23.jpg","null","","","","","playground","I","non-repeat","null","59","stimuli/playground_23.jpg","","","","",""
"","388","image-keyboard-response","75","2.0.0","83211","pbtb0o7fkvk","camel","stimuli/playground_23.jpg"," ","","","","","playground","I","repeat"," ","59","","","","","",""
"","null","image-keyboard-response","76","2.0.0","84213","pbtb0o7fkvk","camel","stimuli/woods_42.jpg","null","","","","","woods","A","non-repeat","null","60","stimuli/woods_42.jpg","","","","",""
"","null","image-keyboard-response","77","2.0.0","85216","pbtb0o7fkvk","camel","stimuli/bar_10.jpg","null","","","","","bar","B","non-repeat","null","61","stimuli/bar_10.jpg","","","","",""
"","null","image-keyboard-response","78","2.0.0","86226","pbtb0o7fkvk","camel","stimuli/bathroom_63.jpg","null","","","","","bathroom","C","non-repeat","null","62","stimuli/bathroom_63.jpg","","","","",""
"","null","image-keyboard-response","79","2.0.0","87227","pbtb0o7fkvk","camel","stimuli/gym_24.jpg","null","","","","","gym","J","non-repeat","null","63","stimuli/gym_24.jpg","","","","",""
"","null","image-keyboard-response","80","2.0.0","88232","pbtb0o7fkvk","camel","stimuli/coast_64.jpg","null","","","","","coast","K","non-repeat","null","64","stimuli/coast_64.jpg","","","","",""
"","null","image-keyboard-response","81","2.0.0","89234","pbtb0o7fkvk","camel","stimuli/desert_63.jpg","null","","","","","desert","L","non-repeat","null","65","stimuli/desert_63.jpg","","","","",""
"","null","image-keyboard-response","82","2.0.0","90239","pbtb0o7fkvk","camel","stimuli/kitchen_29.jpg","null","","","","","kitchen","D","non-repeat","null","66","stimuli/kitchen_29.jpg","","","","",""
"","null","image-keyboard-response","83","2.0.0","91243","pbtb0o7fkvk","camel","stimuli/street_56.jpg","null","","","","","street","E","non-repeat","null","67","stimuli/street_56.jpg","","","","",""
"","null","image-keyboard-response","84","2.0.0","92244","pbtb0o7fkvk","camel","stimuli/stream_45.jpg","null","","","","","stream","F","non-repeat","null","68","stimuli/stream_45.jpg","","","","",""
"","null","image-keyboard-response","85","2.0.0","93254","pbtb0o7fkvk","camel","stimuli/gym_24.jpg","null","","","","","gym","J","non-repeat","null","69","stimuli/gym_24.jpg","","","","",""
"","594","image-keyboard-response","86","2.0.0","94257","pbtb0o7fkvk","camel","stimuli/gym_24.jpg"," ","","","","","gym","J","repeat"," ","69","","","","","",""
"","null","image-keyboard-response","87","2.0.0","95259","pbtb0o7fkvk","camel","stimuli/coast_64.jpg","null","","","","","coast","K","non-repeat","null","70","stimuli/coast_64.jpg","","","","",""
"","null","image-keyboard-response","88","2.0.0","96260","pbtb0o7fkvk","camel","stimuli/desert_63.jpg","null","","","","","desert","L","non-repeat","null","71","stimuli/desert_63.jpg","","","","",""
"","null","image-keyboard-response","89","2.0.0","97263","pbtb0o7fkvk","camel","stimuli/woods_42.jpg","null","","","","","woods","A","non-repeat","null","72","stimuli/woods_42.jpg","","","","",""
"","null","image-keyboard-response","90","2.0.0","98267","pbtb0o7fkvk","camel","stimuli/bar_10.jpg","null","","","","","bar","B","non-repeat","null","73","stimuli/bar_10.jpg","","","","",""
"","null","image-keyboard-response","91","2.0.0","99282","pbtb0o7fkvk","camel","stimuli/bathroom_63.jpg","null","","","","","bathroom","C","non-repeat","null","74","stimuli/bathroom_63.jpg","","","","",""
"","null","image-keyboard-response","92","2.0.0","100285","pbtb0o7fkvk","camel","stimuli/kitchen_29.jpg","null","","","","","kitchen","D","non-repeat","null","75","stimuli/kitchen_29.jpg","","","","",""
"","null","image-keyboard-response","93","2.0.0","101290","pbtb0o7fkvk","camel","stimuli/street_56.jpg","null","","","","","street","E","non-repeat","null","76","stimuli/street_56.jpg","","","","",""
"","null","image-keyboard-response","94","2.0.0","102301","pbtb0o7fkvk","camel","stimuli/stream_45.jpg","null","","","","","stream","F","non-repeat","null","77","stimuli/stream_45.jpg","","","","",""
"","null","image-keyboard-response","95","2.0.0","103316","pbtb0o7fkvk","camel","stimuli/gym_24.jpg","null","","","","","gym","J","non-repeat","null","78","stimuli/gym_24.jpg","","","","",""
"","451","image-keyboard-response","96","2.0.0","104317","pbtb0o7fkvk","camel","stimuli/gym_24.jpg"," ","","","","","gym","J","repeat"," ","78","","","","","",""
"","null","image-keyboard-response","97","2.0.0","105321","pbtb0o7fkvk","camel","stimuli/coast_64.jpg","null","","","","","coast","K","non-repeat","null","79","stimuli/coast_64.jpg","","","","",""
"","null","image-keyboard-response","98","2.0.0","106330","pbtb0o7fkvk","camel","stimuli/desert_63.jpg","null","","","","","desert","L","non-repeat","null","80","stimuli/desert_63.jpg","","","","",""
"","null","image-keyboard-response","99","2.0.0","107335","pbtb0o7fkvk","camel","stimuli/woods_42.jpg","null","","","","","woods","A","non-repeat","null","81","stimuli/woods_42.jpg","","","","",""
"","318","image-keyboard-response","100","2.0.0","108339","pbtb0o7fkvk","camel","stimuli/woods_42.jpg"," ","","","","","woods","A","repeat"," ","81","","","","","",""
"","null","image-keyboard-response","101","2.0.0","109341","pbtb0o7fkvk","camel","stimuli/bar_10.jpg","null","","","","","bar","B","non-repeat","null","82","stimuli/bar_10.jpg","","","","",""
"","null","image-keyboard-response","102","2.0.0","110346","pbtb0o7fkvk","camel","stimuli/bathroom_63.jpg","null","","","","","bathroom","C","non-repeat","null","83","stimuli/bathroom_63.jpg","","","","",""
"","null","image-keyboard-response","103","2.0.0","111347","pbtb0o7fkvk","camel","stimuli/gym_24.jpg","null","","","","","gym","J","non-repeat","null","84","stimuli/gym_24.jpg","","","","",""
"","null","image-keyboard-response","104","2.0.0","112353","pbtb0o7fkvk","camel","stimuli/coast_64.jpg","null","","","","","coast","K","non-repeat","null","85","stimuli/coast_64.jpg","","","","",""
"","null","image-keyboard-response","105","2.0.0","113359","pbtb0o7fkvk","camel","stimuli/desert_63.jpg","null","","","","","desert","L","non-repeat","null","86","stimuli/desert_63.jpg","","","","",""
"","null","image-keyboard-response","106","2.0.0","114372","pbtb0o7fkvk","camel","stimuli/kitchen_29.jpg","null","","","","","kitchen","D","non-repeat","null","87","stimuli/kitchen_29.jpg","","","","",""
"","396","image-keyboard-response","107","2.0.0","115372","pbtb0o7fkvk","camel","stimuli/street_56.jpg"," ","","","","","street","E","non-repeat","null","88","stimuli/street_56.jpg","","","","",""
"","null","image-keyboard-response","108","2.0.0","116387","pbtb0o7fkvk","camel","stimuli/stream_45.jpg","null","","","","","stream","F","non-repeat","null","89","stimuli/stream_45.jpg","","","","",""
"","null","image-keyboard-response","109","2.0.0","117401","pbtb0o7fkvk","camel","stimuli/bridge_55.jpg","null","","","","","bridge","G","non-repeat","null","90","stimuli/bridge_55.jpg","","","","",""
"","null","image-keyboard-response","110","2.0.0","118416","pbtb0o7fkvk","camel","stimuli/field_18.jpg","null","","","","","field","H","non-repeat","null","91","stimuli/field_18.jpg","","","","",""
"","null","image-keyboard-response","111","2.0.0","119430","pbtb0o7fkvk","camel","stimuli/playground_23.jpg","null","","","","","playground","I","non-repeat","null","92","stimuli/playground_23.jpg","","","","",""
"","null","image-keyboard-response","112","2.0.0","120445","pbtb0o7fkvk","camel","stimuli/woods_42.jpg","null","","","","","woods","A","non-repeat","null","93","stimuli/woods_42.jpg","","","","",""
"","null","image-keyboard-response","113","2.0.0","121448","pbtb0o7fkvk","camel","stimuli/bar_10.jpg","null","","","","","bar","B","non-repeat","null","94","stimuli/bar_10.jpg","","","","",""
"","null","image-keyboard-response","114","2.0.0","122460","pbtb0o7fkvk","camel","stimuli/bathroom_63.jpg","null","","","","","bathroom","C","non-repeat","null","95","stimuli/bathroom_63.jpg","","","","",""
"","698","image-keyboard-response","115","2.0.0","123473","pbtb0o7fkvk","camel","stimuli/bathroom_63.jpg"," ","","","","","bathroom","C","repeat"," ","95","","","","","",""
"","null","image-keyboard-response","116","2.0.0","124488","pbtb0o7fkvk","camel","stimuli/bridge_55.jpg","null","","","","","bridge","G","non-repeat","null","96","stimuli/bridge_55.jpg","","","","",""
"","null","image-keyboard-response","117","2.0.0","125500","pbtb0o7fkvk","camel","stimuli/field_18.jpg","null","","","","","field","H","non-repeat","null","97","stimuli/field_18.jpg","","","","",""
"","null","image-keyboard-response","118","2.0.0","126516","pbtb0o7fkvk","camel","stimuli/playground_23.jpg","null","","","","","playground","I","non-repeat","null","98","stimuli/playground_23.jpg","","","","",""
"","null","image-keyboard-response","119","2.0.0","127527","pbtb0o7fkvk","camel","stimuli/woods_42.jpg","null","","","","","woods","A","non-repeat","null","99","stimuli/woods_42.jpg","","","","",""
"","390","image-keyboard-response","120","2.0.0","128543","pbtb0o7fkvk","camel","stimuli/woods_42.jpg"," ","","","","","woods","A","repeat"," ","99","","","","","",""
"","null","image-keyboard-response","121","2.0.0","129545","pbtb0o7fkvk","camel","stimuli/bar_10.jpg","null","","","","","bar","B","non-repeat","null","100","stimuli/bar_10.jpg","","","","",""
"","null","image-keyboard-response","122","2.0.0","130560","pbtb0o7fkvk","camel","stimuli/bathroom_63.jpg","null","","","","","bathroom","C","non-repeat","null","101","stimuli/bathroom_63.jpg","","","","",""
"","467","image-keyboard-response","123","2.0.0","131574","pbtb0o7fkvk","camel","stimuli/bathroom_63.jpg"," ","","","","","bathroom","C","repeat"," ","101","","","","","",""
"","null","image-keyboard-response","124","2.0.0","132588","pbtb0o7fkvk","camel","stimuli/kitchen_29.jpg","null","","","","","kitchen","D","non-repeat","null","102","stimuli/kitchen_29.jpg","","","","",""
"","null","image-keyboard-response","125","2.0.0","133590","pbtb0o7fkvk","camel","stimuli/street_56.jpg","null","","","","","street","E","non-repeat","null","103","stimuli/street_56.jpg","","","","",""
"","null","image-keyboard-response","126","2.0.0","134605","pbtb0o7fkvk","camel","stimuli/stream_45.jpg","null","","","","","stream","F","non-repeat","null","104","stimuli/stream_45.jpg","","","","",""
"","null","image-keyboard-response","127","2.0.0","135622","pbtb0o7fkvk","camel","stimuli/woods_42.jpg","null","","","","","woods","A","non-repeat","null","105","stimuli/woods_42.jpg","","","","",""
"","null","image-keyboard-response","128","2.0.0","136637","pbtb0o7fkvk","camel","stimuli/bar_10.jpg","null","","","","","bar","B","non-repeat","null","106","stimuli/bar_10.jpg","","","","",""
"","null","image-keyboard-response","129","2.0.0","137651","pbtb0o7fkvk","camel","stimuli/bathroom_63.jpg","null","","","","","bathroom","C","non-repeat","null","107","stimuli/bathroom_63.jpg","","","","",""
"","null","image-keyboard-response","130","2.0.0","138667","pbtb0o7fkvk","camel","stimuli/gym_24.jpg","null","","","","","gym","J","non-repeat","null","108","stimuli/gym_24.jpg","","","","",""
"","null","image-keyboard-response","131","2.0.0","139682","pbtb0o7fkvk","camel","stimuli/coast_64.jpg","null","","","","","coast","K","non-repeat","null","109","stimuli/coast_64.jpg","","","","",""
"","null","image-keyboard-response","132","2.0.0","140698","pbtb0o7fkvk","camel","stimuli/desert_63.jpg","null","","","","","desert","L","non-repeat","null","110","stimuli/desert_63.jpg","","","","",""
"","null","image-keyboard-response","133","2.0.0","141703","pbtb0o7fkvk","camel","stimuli/kitchen_29.jpg","null","","","","","kitchen","D","non-repeat","null","111","stimuli/kitchen_29.jpg","","","","",""
"","null","image-keyboard-response","134","2.0.0","142713","pbtb0o7fkvk","camel","stimuli/street_56.jpg","null","","","","","street","E","non-repeat","null","112","stimuli/street_56.jpg","","","","",""
"","null","image-keyboard-response","135","2.0.0","143726","pbtb0o7fkvk","camel","stimuli/stream_45.jpg","null","","","","","stream","F","non-repeat","null","113","stimuli/stream_45.jpg","","","","",""
"","null","image-keyboard-response","136","2.0.0","144742","pbtb0o7fkvk","camel","stimuli/gym_24.jpg","null","","","","","gym","J","non-repeat","null","114","stimuli/gym_24.jpg","","","","",""
"","null","image-keyboard-response","137","2.0.0","145743","pbtb0o7fkvk","camel","stimuli/coast_64.jpg","null","","","","","coast","K","non-repeat","null","115","stimuli/coast_64.jpg","","","","",""
"","null","image-keyboard-response","138","2.0.0","146759","pbtb0o7fkvk","camel","stimuli/desert_63.jpg","null","","","","","desert","L","non-repeat","null","116","stimuli/desert_63.jpg","","","","",""
"","null","image-keyboard-response","139","2.0.0","147762","pbtb0o7fkvk","camel","stimuli/woods_42.jpg","null","","","","","woods","A","non-repeat","null","117","stimuli/woods_42.jpg","","","","",""
"","null","image-keyboard-response","140","2.0.0","148778","pbtb0o7fkvk","camel","stimuli/bar_10.jpg","null","","","","","bar","B","non-repeat","null","118","stimuli/bar_10.jpg","","","","",""
"","null","image-keyboard-response","141","2.0.0","149792","pbtb0o7fkvk","camel","stimuli/bathroom_63.jpg","null","","","","","bathroom","C","non-repeat","null","119","stimuli/bathroom_63.jpg","","","","",""
"","null","image-keyboard-response","142","2.0.0","150805","pbtb0o7fkvk","camel","stimuli/gym_24.jpg","null","","","","","gym","J","non-repeat","null","120","stimuli/gym_24.jpg","","","","",""
"","null","image-keyboard-response","143","2.0.0","151808","pbtb0o7fkvk","camel","stimuli/coast_64.jpg","null","","","","","coast","K","non-repeat","null","121","stimuli/coast_64.jpg","","","","",""
"","null","image-keyboard-response","144","2.0.0","152822","pbtb0o7fkvk","camel","stimuli/desert_63.jpg","null","","","","","desert","L","non-repeat","null","122","stimuli/desert_63.jpg","","","","",""
"","null","image-keyboard-response","145","2.0.0","153895","pbtb0o7fkvk","camel","stimuli/woods_42.jpg","null","","","","","woods","A","non-repeat","null","123","stimuli/woods_42.jpg","","","","",""
"","null","image-keyboard-response","146","2.0.0","154897","pbtb0o7fkvk","camel","stimuli/bar_10.jpg","null","","","","","bar","B","non-repeat","null","124","stimuli/bar_10.jpg","","","","",""
"","null","image-keyboard-response","147","2.0.0","155910","pbtb0o7fkvk","camel","stimuli/bathroom_63.jpg","null","","","","","bathroom","C","non-repeat","null","125","stimuli/bathroom_63.jpg","","","","",""
"","null","image-keyboard-response","148","2.0.0","156921","pbtb0o7fkvk","camel","stimuli/bathroom_63.jpg","null","","","","","bathroom","C","repeat"," ","125","","","","","",""
"","null","image-keyboard-response","149","2.0.0","157937","pbtb0o7fkvk","camel","stimuli/bridge_55.jpg","null","","","","","bridge","G","non-repeat","null","126","stimuli/bridge_55.jpg","","","","",""
"","null","image-keyboard-response","150","2.0.0","158953","pbtb0o7fkvk","camel","stimuli/field_18.jpg","null","","","","","field","H","non-repeat","null","127","stimuli/field_18.jpg","","","","",""
"","null","image-keyboard-response","151","2.0.0","159967","pbtb0o7fkvk","camel","stimuli/playground_23.jpg","null","","","","","playground","I","non-repeat","null","128","stimuli/playground_23.jpg","","","","",""
"","null","image-keyboard-response","152","2.0.0","160968","pbtb0o7fkvk","camel","stimuli/gym_24.jpg","null","","","","","gym","J","non-repeat","null","129","stimuli/gym_24.jpg","","","","",""
"","null","image-keyboard-response","153","2.0.0","161970","pbtb0o7fkvk","camel","stimuli/coast_64.jpg","null","","","","","coast","K","non-repeat","null","130","stimuli/coast_64.jpg","","","","",""
"","null","image-keyboard-response","154","2.0.0","162972","pbtb0o7fkvk","camel","stimuli/desert_63.jpg","null","","","","","desert","L","non-repeat","null","131","stimuli/desert_63.jpg","","","","",""
"","null","image-keyboard-response","155","2.0.0","163987","pbtb0o7fkvk","camel","stimuli/bridge_55.jpg","null","","","","","bridge","G","non-repeat","null","132","stimuli/bridge_55.jpg","","","","",""
"","null","image-keyboard-response","156","2.0.0","165002","pbtb0o7fkvk","camel","stimuli/field_18.jpg","null","","","","","field","H","non-repeat","null","133","stimuli/field_18.jpg","","","","",""
"","null","image-keyboard-response","157","2.0.0","166004","pbtb0o7fkvk","camel","stimuli/playground_23.jpg","null","","","","","playground","I","non-repeat","null","134","stimuli/playground_23.jpg","","","","",""
"","null","image-keyboard-response","158","2.0.0","167017","pbtb0o7fkvk","camel","stimuli/kitchen_29.jpg","null","","","","","kitchen","D","non-repeat","null","135","stimuli/kitchen_29.jpg","","","","",""
"","null","image-keyboard-response","159","2.0.0","168030","pbtb0o7fkvk","camel","stimuli/street_56.jpg","null","","","","","street","E","non-repeat","null","136","stimuli/street_56.jpg","","","","",""
"","null","image-keyboard-response","160","2.0.0","169044","pbtb0o7fkvk","camel","stimuli/stream_45.jpg","null","","","","","stream","F","non-repeat","null","137","stimuli/stream_45.jpg","","","","",""
"","null","image-keyboard-response","161","2.0.0","170057","pbtb0o7fkvk","camel","stimuli/bridge_55.jpg","null","","","","","bridge","G","non-repeat","null","138","stimuli/bridge_55.jpg","","","","",""
"","null","image-keyboard-response","162","2.0.0","171071","pbtb0o7fkvk","camel","stimuli/field_18.jpg","null","","","","","field","H","non-repeat","null","139","stimuli/field_18.jpg","","","","",""
"","null","image-keyboard-response","163","2.0.0","172086","pbtb0o7fkvk","camel","stimuli/playground_23.jpg","null","","","","","playground","I","non-repeat","null","140","stimuli/playground_23.jpg","","","","",""
"","null","image-keyboard-response","164","2.0.0","173100","pbtb0o7fkvk","camel","stimuli/kitchen_29.jpg","null","","","","","kitchen","D","non-repeat","null","141","stimuli/kitchen_29.jpg","","","","",""
"","null","image-keyboard-response","165","2.0.0","174102","pbtb0o7fkvk","camel","stimuli/street_56.jpg","null","","","","","street","E","non-repeat","null","142","stimuli/street_56.jpg","","","","",""
"","null","image-keyboard-response","166","2.0.0","175116","pbtb0o7fkvk","camel","stimuli/stream_45.jpg","null","","","","","stream","F","non-repeat","null","143","stimuli/stream_45.jpg","","","","",""
"","null","image-keyboard-response","167","2.0.0","176129","pbtb0o7fkvk","camel","stimuli/bridge_55.jpg","null","","","","","bridge","G","non-repeat","null","144","stimuli/bridge_55.jpg","","","","",""
"","null","image-keyboard-response","168","2.0.0","177130","pbtb0o7fkvk","camel","stimuli/field_18.jpg","null","","","","","field","H","non-repeat","null","145","stimuli/field_18.jpg","","","","",""
"","null","image-keyboard-response","169","2.0.0","178142","pbtb0o7fkvk","camel","stimuli/playground_23.jpg","null","","","","","playground","I","non-repeat","null","146","stimuli/playground_23.jpg","","","","",""
"","null","image-keyboard-response","170","2.0.0","179154","pbtb0o7fkvk","camel","stimuli/kitchen_29.jpg","null","","","","","kitchen","D","non-repeat","null","147","stimuli/kitchen_29.jpg","","","","",""
"","null","image-keyboard-response","171","2.0.0","180170","pbtb0o7fkvk","camel","stimuli/street_56.jpg","null","","","","","street","E","non-repeat","null","148","stimuli/street_56.jpg","","","","",""
"","null","image-keyboard-response","172","2.0.0","181172","pbtb0o7fkvk","camel","stimuli/stream_45.jpg","null","","","","","stream","F","non-repeat","null","149","stimuli/stream_45.jpg","","","","",""
"","null","image-keyboard-response","173","2.0.0","182188","pbtb0o7fkvk","camel","stimuli/gym_24.jpg","null","","","","","gym","J","non-repeat","null","150","stimuli/gym_24.jpg","","","","",""
"","null","image-keyboard-response","174","2.0.0","183203","pbtb0o7fkvk","camel","stimuli/coast_64.jpg","null","","","","","coast","K","non-repeat","null","151","stimuli/coast_64.jpg","","","","",""
"","null","image-keyboard-response","175","2.0.0","184217","pbtb0o7fkvk","camel","stimuli/desert_63.jpg","null","","","","","desert","L","non-repeat","null","152","stimuli/desert_63.jpg","","","","",""
"","null","image-keyboard-response","176","2.0.0","185232","pbtb0o7fkvk","camel","stimuli/woods_42.jpg","null","","","","","woods","A","non-repeat","null","153","stimuli/woods_42.jpg","","","","",""
"","null","image-keyboard-response","177","2.0.0","186245","pbtb0o7fkvk","camel","stimuli/bar_10.jpg","null","","","","","bar","B","non-repeat","null","154","stimuli/bar_10.jpg","","","","",""
"","null","image-keyboard-response","178","2.0.0","187260","pbtb0o7fkvk","camel","stimuli/bathroom_63.jpg","null","","","","","bathroom","C","non-repeat","null","155","stimuli/bathroom_63.jpg","","","","",""
"","null","image-keyboard-response","179","2.0.0","188273","pbtb0o7fkvk","camel","stimuli/kitchen_29.jpg","null","","","","","kitchen","D","non-repeat","null","156","stimuli/kitchen_29.jpg","","","","",""
"","903","image-keyboard-response","180","2.0.0","189287","pbtb0o7fkvk","camel","stimuli/kitchen_29.jpg"," ","","","","","kitchen","D","repeat"," ","156","","","","","",""
"","null","image-keyboard-response","181","2.0.0","190302","pbtb0o7fkvk","camel","stimuli/street_56.jpg","null","","","","","street","E","non-repeat","null","157","stimuli/street_56.jpg","","","","",""
"","null","image-keyboard-response","182","2.0.0","191314","pbtb0o7fkvk","camel","stimuli/stream_45.jpg","null","","","","","stream","F","non-repeat","null","158","stimuli/stream_45.jpg","","","","",""
"","null","image-keyboard-response","183","2.0.0","192330","pbtb0o7fkvk","camel","stimuli/gym_24.jpg","null","","","","","gym","J","non-repeat","null","159","stimuli/gym_24.jpg","","","","",""
"","null","image-keyboard-response","184","2.0.0","193341","pbtb0o7fkvk","camel","stimuli/coast_64.jpg","null","","","","","coast","K","non-repeat","null","160","stimuli/coast_64.jpg","","","","",""
"","null","image-keyboard-response","185","2.0.0","194353","pbtb0o7fkvk","camel","stimuli/desert_63.jpg","null","","","","","desert","L","non-repeat","null","161","stimuli/desert_63.jpg","","","","",""
"","null","image-keyboard-response","186","2.0.0","195368","pbtb0o7fkvk","camel","stimuli/woods_42.jpg","null","","","","","woods","A","non-repeat","null","162","stimuli/woods_42.jpg","","","","",""
"","null","image-keyboard-response","187","2.0.0","196370","pbtb0o7fkvk","camel","stimuli/bar_10.jpg","null","","","","","bar","B","non-repeat","null","163","stimuli/bar_10.jpg","","","","",""
"","null","image-keyboard-response","188","2.0.0","197373","pbtb0o7fkvk","camel","stimuli/bathroom_63.jpg","null","","","","","bathroom","C","non-repeat","null","164","stimuli/bathroom_63.jpg","","","","",""
"","null","image-keyboard-response","189","2.0.0","198385","pbtb0o7fkvk","camel","stimuli/bridge_55.jpg","null","","","","","bridge","G","non-repeat","null","165","stimuli/bridge_55.jpg","","","","",""
"","644","image-keyboard-response","190","2.0.0","199388","pbtb0o7fkvk","camel","stimuli/bridge_55.jpg"," ","","","","","bridge","G","repeat"," ","165","","","","","",""
"","null","image-keyboard-response","191","2.0.0","200401","pbtb0o7fkvk","camel","stimuli/field_18.jpg","null","","","","","field","H","non-repeat","null","166","stimuli/field_18.jpg","","","","",""
"","null","image-keyboard-response","192","2.0.0","201418","pbtb0o7fkvk","camel","stimuli/playground_23.jpg","null","","","","","playground","I","non-repeat","null","167","stimuli/playground_23.jpg","","","","",""
"","null","image-keyboard-response","193","2.0.0","202432","pbtb0o7fkvk","camel","stimuli/gym_24.jpg","null","","","","","gym","J","non-repeat","null","168","stimuli/gym_24.jpg","","","","",""
"","null","image-keyboard-response","194","2.0.0","203433","pbtb0o7fkvk","camel","stimuli/coast_64.jpg","null","","","","","coast","K","non-repeat","null","169","stimuli/coast_64.jpg","","","","",""
"","null","image-keyboard-response","195","2.0.0","204450","pbtb0o7fkvk","camel","stimuli/desert_63.jpg","null","","","","","desert","L","non-repeat","null","170","stimuli/desert_63.jpg","","","","",""
"","null","image-keyboard-response","196","2.0.0","205455","pbtb0o7fkvk","camel","stimuli/bridge_55.jpg","null","","","","","bridge","G","non-repeat","null","171","stimuli/bridge_55.jpg","","","","",""
"","null","image-keyboard-response","197","2.0.0","206470","pbtb0o7fkvk","camel","stimuli/field_18.jpg","null","","","","","field","H","non-repeat","null","172","stimuli/field_18.jpg","","","","",""
"","null","image-keyboard-response","198","2.0.0","207480","pbtb0o7fkvk","camel","stimuli/playground_23.jpg","null","","","","","playground","I","non-repeat","null","173","stimuli/playground_23.jpg","","","","",""
"","null","image-keyboard-response","199","2.0.0","208492","pbtb0o7fkvk","camel","stimuli/kitchen_29.jpg","null","","","","","kitchen","D","non-repeat","null","174","stimuli/kitchen_29.jpg","","","","",""
"","440","image-keyboard-response","200","2.0.0","209508","pbtb0o7fkvk","camel","stimuli/kitchen_29.jpg"," ","","","","","kitchen","D","repeat"," ","174","","","","","",""
"","null","image-keyboard-response","201","2.0.0","210522","pbtb0o7fkvk","camel","stimuli/street_56.jpg","null","","","","","street","E","non-repeat","null","175","stimuli/street_56.jpg","","","","",""
"","null","image-keyboard-response","202","2.0.0","211524","pbtb0o7fkvk","camel","stimuli/stream_45.jpg","null","","","","","stream","F","non-repeat","null","176","stimuli/stream_45.jpg","","","","",""
"","null","image-keyboard-response","203","2.0.0","212528","pbtb0o7fkvk","camel","stimuli/stream_45.jpg","null","","","","","stream","F","repeat"," ","176","","","","","",""
"","null","image-keyboard-response","204","2.0.0","213531","pbtb0o7fkvk","camel","stimuli/bridge_55.jpg","null","","","","","bridge","G","non-repeat","null","177","stimuli/bridge_55.jpg","","","","",""
"","null","image-keyboard-response","205","2.0.0","214547","pbtb0o7fkvk","camel","stimuli/field_18.jpg","null","","","","","field","H","non-repeat","null","178","stimuli/field_18.jpg","","","","",""
"","null","image-keyboard-response","206","2.0.0","215563","pbtb0o7fkvk","camel","stimuli/playground_23.jpg","null","","","","","playground","I","non-repeat","null","179","stimuli/playground_23.jpg","","","","",""
"","null","image-keyboard-response","207","2.0.0","216574","pbtb0o7fkvk","camel","stimuli/kitchen_29.jpg","null","","","","","kitchen","D","non-repeat","null","180","stimuli/kitchen_29.jpg","","","","",""
"","null","image-keyboard-response","208","2.0.0","217589","pbtb0o7fkvk","camel","stimuli/kitchen_29.jpg","null","","","","","kitchen","D","repeat"," ","180","","","","","",""
"","null","image-keyboard-response","209","2.0.0","218604","pbtb0o7fkvk","camel","stimuli/street_56.jpg","null","","","","","street","E","non-repeat","null","181","stimuli/street_56.jpg","","","","",""
"","null","image-keyboard-response","210","2.0.0","219620","pbtb0o7fkvk","camel","stimuli/stream_45.jpg","null","","","","","stream","F","non-repeat","null","182","stimuli/stream_45.jpg","","","","",""
"","null","image-keyboard-response","211","2.0.0","220635","pbtb0o7fkvk","camel","stimuli/bridge_55.jpg","null","","","","","bridge","G","non-repeat","null","183","stimuli/bridge_55.jpg","","","","",""
"","null","image-keyboard-response","212","2.0.0","221640","pbtb0o7fkvk","camel","stimuli/field_18.jpg","null","","","","","field","H","non-repeat","null","184","stimuli/field_18.jpg","","","","",""
"","null","image-keyboard-response","213","2.0.0","222654","pbtb0o7fkvk","camel","stimuli/playground_23.jpg","null","","","","","playground","I","non-repeat","null","185","stimuli/playground_23.jpg","","","","",""
"","null","image-keyboard-response","214","2.0.0","223666","pbtb0o7fkvk","camel","stimuli/kitchen_29.jpg","null","","","","","kitchen","D","non-repeat","null","186","stimuli/kitchen_29.jpg","","","","",""
"","null","image-keyboard-response","215","2.0.0","224682","pbtb0o7fkvk","camel","stimuli/street_56.jpg","null","","","","","street","E","non-repeat","null","187","stimuli/street_56.jpg","","","","",""
"","null","image-keyboard-response","216","2.0.0","225696","pbtb0o7fkvk","camel","stimuli/stream_45.jpg","null","","","","","stream","F","non-repeat","null","188","stimuli/stream_45.jpg","","","","",""
"","null","image-keyboard-response","217","2.0.0","226701","pbtb0o7fkvk","camel","stimuli/stream_45.jpg","null","","","","","stream","F","repeat"," ","188","","","","","",""
"","null","image-keyboard-response","218","2.0.0","227715","pbtb0o7fkvk","camel","stimuli/gym_24.jpg","null","","","","","gym","J","non-repeat","null","189","stimuli/gym_24.jpg","","","","",""
"","null","image-keyboard-response","219","2.0.0","228729","pbtb0o7fkvk","camel","stimuli/gym_24.jpg","null","","","","","gym","J","repeat"," ","189","","","","","",""
"","null","image-keyboard-response","220","2.0.0","229744","pbtb0o7fkvk","camel","stimuli/coast_64.jpg","null","","","","","coast","K","non-repeat","null","190","stimuli/coast_64.jpg","","","","",""
"","null","image-keyboard-response","221","2.0.0","230759","pbtb0o7fkvk","camel","stimuli/desert_63.jpg","null","","","","","desert","L","non-repeat","null","191","stimuli/desert_63.jpg","","","","",""
"","null","image-keyboard-response","222","2.0.0","231770","pbtb0o7fkvk","camel","stimuli/bridge_55.jpg","null","","","","","bridge","G","non-repeat","null","192","stimuli/bridge_55.jpg","","","","",""
"","null","image-keyboard-response","223","2.0.0","232784","pbtb0o7fkvk","camel","stimuli/field_18.jpg","null","","","","","field","H","non-repeat","null","193","stimuli/field_18.jpg","","","","",""
"","null","image-keyboard-response","224","2.0.0","233798","pbtb0o7fkvk","camel","stimuli/playground_23.jpg","null","","","","","playground","I","non-repeat","null","194","stimuli/playground_23.jpg","","","","",""
"","603","image-keyboard-response","225","2.0.0","234802","pbtb0o7fkvk","camel","stimuli/playground_23.jpg"," ","","","","","playground","I","repeat"," ","194","","","","","",""
"","null","image-keyboard-response","226","2.0.0","235815","pbtb0o7fkvk","camel","stimuli/gym_24.jpg","null","","","","","gym","J","non-repeat","null","195","stimuli/gym_24.jpg","","","","",""
"","null","image-keyboard-response","227","2.0.0","236829","pbtb0o7fkvk","camel","stimuli/coast_64.jpg","null","","","","","coast","K","non-repeat","null","196","stimuli/coast_64.jpg","","","","",""
"","null","image-keyboard-response","228","2.0.0","237843","pbtb0o7fkvk","camel","stimuli/desert_63.jpg","null","","","","","desert","L","non-repeat","null","197","stimuli/desert_63.jpg","","","","",""
"","null","image-keyboard-response","229","2.0.0","238856","pbtb0o7fkvk","camel","stimuli/desert_63.jpg","null","","","","","desert","L","repeat"," ","197","","","","","",""
"","null","image-keyboard-response","230","2.0.0","239870","pbtb0o7fkvk","camel","stimuli/woods_42.jpg","null","","","","","woods","A","non-repeat","null","198","stimuli/woods_42.jpg","","","","",""
"","null","image-keyboard-response","231","2.0.0","240886","pbtb0o7fkvk","camel","stimuli/bar_10.jpg","null","","","","","bar","B","non-repeat","null","199","stimuli/bar_10.jpg","","","","",""
"","null","image-keyboard-response","232","2.0.0","241901","pbtb0o7fkvk","camel","stimuli/bathroom_63.jpg","null","","","","","bathroom","C","non-repeat","null","200","stimuli/bathroom_63.jpg","","","","",""
"","null","image-keyboard-response","233","2.0.0","242916","pbtb0o7fkvk","camel","stimuli/kitchen_29.jpg","null","","","","","kitchen","D","non-repeat","null","201","stimuli/kitchen_29.jpg","","","","",""
"","null","image-keyboard-response","234","2.0.0","243931","pbtb0o7fkvk","camel","stimuli/street_56.jpg","null","","","","","street","E","non-repeat","null","202","stimuli/street_56.jpg","","","","",""
"","null","image-keyboard-response","235","2.0.0","244948","pbtb0o7fkvk","camel","stimuli/stream_45.jpg","null","","","","","stream","F","non-repeat","null","203","stimuli/stream_45.jpg","","","","",""
"","null","image-keyboard-response","236","2.0.0","245961","pbtb0o7fkvk","camel","stimuli/gym_24.jpg","null","","","","","gym","J","non-repeat","null","204","stimuli/gym_24.jpg","","","","",""
"","369","image-keyboard-response","237","2.0.0","246977","pbtb0o7fkvk","camel","stimuli/gym_24.jpg"," ","","","","","gym","J","repeat"," ","204","","","","","",""
"","null","image-keyboard-response","238","2.0.0","247991","pbtb0o7fkvk","camel","stimuli/coast_64.jpg","null","","","","","coast","K","non-repeat","null","205","stimuli/coast_64.jpg","","","","",""
"","null","image-keyboard-response","239","2.0.0","249004","pbtb0o7fkvk","camel","stimuli/desert_63.jpg","null","","","","","desert","L","non-repeat","null","206","stimuli/desert_63.jpg","","","","",""
"","null","image-keyboard-response","240","2.0.0","250016","pbtb0o7fkvk","camel","stimuli/desert_63.jpg","null","","","","","desert","L","repeat"," ","206","","","","","",""
"","null","image-keyboard-response","241","2.0.0","251029","pbtb0o7fkvk","camel","stimuli/kitchen_29.jpg","null","","","","","kitchen","D","non-repeat","null","207","stimuli/kitchen_29.jpg","","","","",""
"","null","image-keyboard-response","242","2.0.0","252044","pbtb0o7fkvk","camel","stimuli/street_56.jpg","null","","","","","street","E","non-repeat","null","208","stimuli/street_56.jpg","","","","",""
"","null","image-keyboard-response","243","2.0.0","253058","pbtb0o7fkvk","camel","stimuli/stream_45.jpg","null","","","","","stream","F","non-repeat","null","209","stimuli/stream_45.jpg","","","","",""
"","469","image-keyboard-response","244","2.0.0","254072","pbtb0o7fkvk","camel","stimuli/stream_45.jpg"," ","","","","","stream","F","repeat"," ","209","","","","","",""
"","null","image-keyboard-response","245","2.0.0","255086","pbtb0o7fkvk","camel","stimuli/gym_24.jpg","null","","","","","gym","J","non-repeat","null","210","stimuli/gym_24.jpg","","","","",""
"","null","image-keyboard-response","246","2.0.0","256088","pbtb0o7fkvk","camel","stimuli/coast_64.jpg","null","","","","","coast","K","non-repeat","null","211","stimuli/coast_64.jpg","","","","",""
"","null","image-keyboard-response","247","2.0.0","257101","pbtb0o7fkvk","camel","stimuli/desert_63.jpg","null","","","","","desert","L","non-repeat","null","212","stimuli/desert_63.jpg","","","","",""
"","null","image-keyboard-response","248","2.0.0","258115","pbtb0o7fkvk","camel","stimuli/desert_63.jpg","null","","","","","desert","L","repeat"," ","212","","","","","",""
"","null","image-keyboard-response","249","2.0.0","259119","pbtb0o7fkvk","camel","stimuli/woods_42.jpg","null","","","","","woods","A","non-repeat","null","213","stimuli/woods_42.jpg","","","","",""
"","null","image-keyboard-response","250","2.0.0","260131","pbtb0o7fkvk","camel","stimuli/bar_10.jpg","null","","","","","bar","B","non-repeat","null","214","stimuli/bar_10.jpg","","","","",""
"","null","image-keyboard-response","251","2.0.0","261146","pbtb0o7fkvk","camel","stimuli/bathroom_63.jpg","null","","","","","bathroom","C","non-repeat","null","215","stimuli/bathroom_63.jpg","","","","",""
"","null","image-keyboard-response","252","2.0.0","262149","pbtb0o7fkvk","camel","stimuli/bridge_55.jpg","null","","","","","bridge","G","non-repeat","null","216","stimuli/bridge_55.jpg","","","","",""
"","597","image-keyboard-response","253","2.0.0","263150","pbtb0o7fkvk","camel","stimuli/bridge_55.jpg"," ","","","","","bridge","G","repeat"," ","216","","","","","",""
"","null","image-keyboard-response","254","2.0.0","264162","pbtb0o7fkvk","camel","stimuli/field_18.jpg","null","","","","","field","H","non-repeat","null","217","stimuli/field_18.jpg","","","","",""
"","null","image-keyboard-response","255","2.0.0","265177","pbtb0o7fkvk","camel","stimuli/playground_23.jpg","null","","","","","playground","I","non-repeat","null","218","stimuli/playground_23.jpg","","","","",""
"","null","image-keyboard-response","256","2.0.0","266193","pbtb0o7fkvk","camel","stimuli/gym_24.jpg","null","","","","","gym","J","non-repeat","null","219","stimuli/gym_24.jpg","","","","",""
"","null","image-keyboard-response","257","2.0.0","267205","pbtb0o7fkvk","camel","stimuli/coast_64.jpg","null","","","","","coast","K","non-repeat","null","220","stimuli/coast_64.jpg","","","","",""
"","null","image-keyboard-response","258","2.0.0","268219","pbtb0o7fkvk","camel","stimuli/desert_63.jpg","null","","","","","desert","L","non-repeat","null","221","stimuli/desert_63.jpg","","","","",""
"","null","image-keyboard-response","259","2.0.0","269233","pbtb0o7fkvk","camel","stimuli/bridge_55.jpg","null","","","","","bridge","G","non-repeat","null","222","stimuli/bridge_55.jpg","","","","",""
"","null","image-keyboard-response","260","2.0.0","270250","pbtb0o7fkvk","camel","stimuli/field_18.jpg","null","","","","","field","H","non-repeat","null","223","stimuli/field_18.jpg","","","","",""
"","null","image-keyboard-response","261","2.0.0","271262","pbtb0o7fkvk","camel","stimuli/playground_23.jpg","null","","","","","playground","I","non-repeat","null","224","stimuli/playground_23.jpg","","","","",""
"","555","image-keyboard-response","262","2.0.0","272276","pbtb0o7fkvk","camel","stimuli/playground_23.jpg"," ","","","","","playground","I","repeat"," ","224","","","","","",""
"","null","image-keyboard-response","263","2.0.0","273290","pbtb0o7fkvk","camel","stimuli/kitchen_29.jpg","null","","","","","kitchen","D","non-repeat","null","225","stimuli/kitchen_29.jpg","","","","",""
"","null","image-keyboard-response","264","2.0.0","274307","pbtb0o7fkvk","camel","stimuli/street_56.jpg","null","","","","","street","E","non-repeat","null","226","stimuli/street_56.jpg","","","","",""
"","null","image-keyboard-response","265","2.0.0","275321","pbtb0o7fkvk","camel","stimuli/stream_45.jpg","null","","","","","stream","F","non-repeat","null","227","stimuli/stream_45.jpg","","","","",""
"","null","image-keyboard-response","266","2.0.0","276334","pbtb0o7fkvk","camel","stimuli/woods_42.jpg","null","","","","","woods","A","non-repeat","null","228","stimuli/woods_42.jpg","","","","",""
"","null","image-keyboard-response","267","2.0.0","277351","pbtb0o7fkvk","camel","stimuli/woods_42.jpg","null","","","","","woods","A","repeat"," ","228","","","","","",""
"","null","image-keyboard-response","268","2.0.0","278367","pbtb0o7fkvk","camel","stimuli/bar_10.jpg","null","","","","","bar","B","non-repeat","null","229","stimuli/bar_10.jpg","","","","",""
"","null","image-keyboard-response","269","2.0.0","279379","pbtb0o7fkvk","camel","stimuli/bathroom_63.jpg","null","","","","","bathroom","C","non-repeat","null","230","stimuli/bathroom_63.jpg","","","","",""
"","null","image-keyboard-response","270","2.0.0","280395","pbtb0o7fkvk","camel","stimuli/kitchen_29.jpg","null","","","","","kitchen","D","non-repeat","null","231","stimuli/kitchen_29.jpg","","","","",""
"","453","image-keyboard-response","271","2.0.0","281410","pbtb0o7fkvk","camel","stimuli/kitchen_29.jpg"," ","","","","","kitchen","D","repeat"," ","231","","","","","",""
"","null","image-keyboard-response","272","2.0.0","282413","pbtb0o7fkvk","camel","stimuli/street_56.jpg","null","","","","","street","E","non-repeat","null","232","stimuli/street_56.jpg","","","","",""
"","null","image-keyboard-response","273","2.0.0","283428","pbtb0o7fkvk","camel","stimuli/stream_45.jpg","null","","","","","stream","F","non-repeat","null","233","stimuli/stream_45.jpg","","","","",""
"","492","image-keyboard-response","274","2.0.0","284441","pbtb0o7fkvk","camel","stimuli/stream_45.jpg"," ","","","","","stream","F","repeat"," ","233","","","","","",""
"","null","image-keyboard-response","275","2.0.0","285442","pbtb0o7fkvk","camel","stimuli/bridge_55.jpg","null","","","","","bridge","G","non-repeat","null","234","stimuli/bridge_55.jpg","","","","",""
"","null","image-keyboard-response","276","2.0.0","286444","pbtb0o7fkvk","camel","stimuli/field_18.jpg","null","","","","","field","H","non-repeat","null","235","stimuli/field_18.jpg","","","","",""
"","null","image-keyboard-response","277","2.0.0","287458","pbtb0o7fkvk","camel","stimuli/playground_23.jpg","null","","","","","playground","I","non-repeat","null","236","stimuli/playground_23.jpg","","","","",""
"","null","image-keyboard-response","278","2.0.0","288473","pbtb0o7fkvk","camel","stimuli/gym_24.jpg","null","","","","","gym","J","non-repeat","null","237","stimuli/gym_24.jpg","","","","",""
"","null","image-keyboard-response","279","2.0.0","289486","pbtb0o7fkvk","camel","stimuli/gym_24.jpg","null","","","","","gym","J","repeat"," ","237","","","","","",""
"","null","image-keyboard-response","280","2.0.0","290501","pbtb0o7fkvk","camel","stimuli/coast_64.jpg","null","","","","","coast","K","non-repeat","null","238","stimuli/coast_64.jpg","","","","",""
"","null","image-keyboard-response","281","2.0.0","291504","pbtb0o7fkvk","camel","stimuli/desert_63.jpg","null","","","","","desert","L","non-repeat","null","239","stimuli/desert_63.jpg","","","","",""
"","null","image-keyboard-response","282","2.0.0","292519","pbtb0o7fkvk","camel","stimuli/bridge_55.jpg","null","","","","","bridge","G","non-repeat","null","240","stimuli/bridge_55.jpg","","","","",""
"","null","image-keyboard-response","283","2.0.0","293536","pbtb0o7fkvk","camel","stimuli/field_18.jpg","null","","","","","field","H","non-repeat","null","241","stimuli/field_18.jpg","","","","",""
"","null","image-keyboard-response","284","2.0.0","294552","pbtb0o7fkvk","camel","stimuli/playground_23.jpg","null","","","","","playground","I","non-repeat","null","242","stimuli/playground_23.jpg","","","","",""
"","null","image-keyboard-response","285","2.0.0","295567","pbtb0o7fkvk","camel","stimuli/kitchen_29.jpg","null","","","","","kitchen","D","non-repeat","null","243","stimuli/kitchen_29.jpg","","","","",""
"","null","image-keyboard-response","286","2.0.0","296580","pbtb0o7fkvk","camel","stimuli/street_56.jpg","null","","","","","street","E","non-repeat","null","244","stimuli/street_56.jpg","","","","",""
"","null","image-keyboard-response","287","2.0.0","297594","pbtb0o7fkvk","camel","stimuli/stream_45.jpg","null","","","","","stream","F","non-repeat","null","245","stimuli/stream_45.jpg","","","","",""
"","null","image-keyboard-response","288","2.0.0","298609","pbtb0o7fkvk","camel","stimuli/woods_42.jpg","null","","","","","woods","A","non-repeat","null","246","stimuli/woods_42.jpg","","","","",""
"","null","image-keyboard-response","289","2.0.0","299625","pbtb0o7fkvk","camel","stimuli/bar_10.jpg","null","","","","","bar","B","non-repeat","null","247","stimuli/bar_10.jpg","","","","",""
"","null","image-keyboard-response","290","2.0.0","300637","pbtb0o7fkvk","camel","stimuli/bathroom_63.jpg","null","","","","","bathroom","C","non-repeat","null","248","stimuli/bathroom_63.jpg","","","","",""
"","null","image-keyboard-response","291","2.0.0","301651","pbtb0o7fkvk","camel","stimuli/bridge_55.jpg","null","","","","","bridge","G","non-repeat","null","249","stimuli/bridge_55.jpg","","","","",""
"","null","image-keyboard-response","292","2.0.0","302667","pbtb0o7fkvk","camel","stimuli/field_18.jpg","null","","","","","field","H","non-repeat","null","250","stimuli/field_18.jpg","","","","",""
"","null","image-keyboard-response","293","2.0.0","303670","pbtb0o7fkvk","camel","stimuli/playground_23.jpg","null","","","","","playground","I","non-repeat","null","251","stimuli/playground_23.jpg","","","","",""
"","null","image-keyboard-response","294","2.0.0","304686","pbtb0o7fkvk","camel","stimuli/playground_23.jpg","null","","","","","playground","I","repeat"," ","251","","","","","",""
"","null","image-keyboard-response","295","2.0.0","305701","pbtb0o7fkvk","camel","stimuli/kitchen_29.jpg","null","","","","","kitchen","D","non-repeat","null","252","stimuli/kitchen_29.jpg","","","","",""
"","null","image-keyboard-response","296","2.0.0","306717","pbtb0o7fkvk","camel","stimuli/street_56.jpg","null","","","","","street","E","non-repeat","null","253","stimuli/street_56.jpg","","","","",""
"","null","image-keyboard-response","297","2.0.0","307734","pbtb0o7fkvk","camel","stimuli/stream_45.jpg","null","","","","","stream","F","non-repeat","null","254","stimuli/stream_45.jpg","","","","",""
"","null","image-keyboard-response","298","2.0.0","308748","pbtb0o7fkvk","camel","stimuli/gym_24.jpg","null","","","","","gym","J","non-repeat","null","255","stimuli/gym_24.jpg","","","","",""
"","null","image-keyboard-response","299","2.0.0","309762","pbtb0o7fkvk","camel","stimuli/coast_64.jpg","null","","","","","coast","K","non-repeat","null","256","stimuli/coast_64.jpg","","","","",""
"","null","image-keyboard-response","300","2.0.0","310778","pbtb0o7fkvk","camel","stimuli/desert_63.jpg","null","","","","","desert","L","non-repeat","null","257","stimuli/desert_63.jpg","","","","",""
"","null","image-keyboard-response","301","2.0.0","311779","pbtb0o7fkvk","camel","stimuli/desert_63.jpg","null","","","","","desert","L","repeat"," ","257","","","","","",""
"","null","image-keyboard-response","302","2.0.0","312793","pbtb0o7fkvk","camel","stimuli/kitchen_29.jpg","null","","","","","kitchen","D","non-repeat","null","258","stimuli/kitchen_29.jpg","","","","",""
"","540","image-keyboard-response","303","2.0.0","313808","pbtb0o7fkvk","camel","stimuli/kitchen_29.jpg"," ","","","","","kitchen","D","repeat"," ","258","","","","","",""
"","null","image-keyboard-response","304","2.0.0","314823","pbtb0o7fkvk","camel","stimuli/street_56.jpg","null","","","","","street","E","non-repeat","null","259","stimuli/street_56.jpg","","","","",""
"","null","image-keyboard-response","305","2.0.0","315839","pbtb0o7fkvk","camel","stimuli/stream_45.jpg","null","","","","","stream","F","non-repeat","null","260","stimuli/stream_45.jpg","","","","",""
"","null","image-keyboard-response","306","2.0.0","316852","pbtb0o7fkvk","camel","stimuli/gym_24.jpg","null","","","","","gym","J","non-repeat","null","261","stimuli/gym_24.jpg","","","","",""
"","null","image-keyboard-response","307","2.0.0","317866","pbtb0o7fkvk","camel","stimuli/coast_64.jpg","null","","","","","coast","K","non-repeat","null","262","stimuli/coast_64.jpg","","","","",""
"","null","image-keyboard-response","308","2.0.0","318879","pbtb0o7fkvk","camel","stimuli/desert_63.jpg","null","","","","","desert","L","non-repeat","null","263","stimuli/desert_63.jpg","","","","",""
"","null","image-keyboard-response","309","2.0.0","319893","pbtb0o7fkvk","camel","stimuli/bridge_55.jpg","null","","","","","bridge","G","non-repeat","null","264","stimuli/bridge_55.jpg","","","","",""
"","null","image-keyboard-response","310","2.0.0","320907","pbtb0o7fkvk","camel","stimuli/bridge_55.jpg","null","","","","","bridge","G","repeat"," ","264","","","","","",""
"","null","image-keyboard-response","311","2.0.0","321923","pbtb0o7fkvk","camel","stimuli/field_18.jpg","null","","","","","field","H","non-repeat","null","265","stimuli/field_18.jpg","","","","",""
"","null","image-keyboard-response","312","2.0.0","322939","pbtb0o7fkvk","camel","stimuli/playground_23.jpg","null","","","","","playground","I","non-repeat","null","266","stimuli/playground_23.jpg","","","","",""
"","null","image-keyboard-response","313","2.0.0","323940","pbtb0o7fkvk","camel","stimuli/kitchen_29.jpg","null","","","","","kitchen","D","non-repeat","null","267","stimuli/kitchen_29.jpg","","","","",""
"","516","image-keyboard-response","314","2.0.0","324955","pbtb0o7fkvk","camel","stimuli/kitchen_29.jpg"," ","","","","","kitchen","D","repeat"," ","267","","","","","",""
"","null","image-keyboard-response","315","2.0.0","325969","pbtb0o7fkvk","camel","stimuli/street_56.jpg","null","","","","","street","E","non-repeat","null","268","stimuli/street_56.jpg","","","","",""
"","null","image-keyboard-response","316","2.0.0","326972","pbtb0o7fkvk","camel","stimuli/stream_45.jpg","null","","","","","stream","F","non-repeat","null","269","stimuli/stream_45.jpg","","","","",""
"","null","image-keyboard-response","317","2.0.0","327988","pbtb0o7fkvk","camel","stimuli/woods_42.jpg","null","","","","","woods","A","non-repeat","null","270","stimuli/woods_42.jpg","","","","",""
"","null","image-keyboard-response","318","2.0.0","329002","pbtb0o7fkvk","camel","stimuli/bar_10.jpg","null","","","","","bar","B","non-repeat","null","271","stimuli/bar_10.jpg","","","","",""
"","null","image-keyboard-response","319","2.0.0","330016","pbtb0o7fkvk","camel","stimuli/bathroom_63.jpg","null","","","","","bathroom","C","non-repeat","null","272","stimuli/bathroom_63.jpg","","","","",""
"","null","image-keyboard-response","320","2.0.0","331020","pbtb0o7fkvk","camel","stimuli/bridge_55.jpg","null","","","","","bridge","G","non-repeat","null","273","stimuli/bridge_55.jpg","","","","",""
"","null","image-keyboard-response","321","2.0.0","332035","pbtb0o7fkvk","camel","stimuli/field_18.jpg","null","","","","","field","H","non-repeat","null","274","stimuli/field_18.jpg","","","","",""
"","null","image-keyboard-response","322","2.0.0","333048","pbtb0o7fkvk","camel","stimuli/playground_23.jpg","null","","","","","playground","I","non-repeat","null","275","stimuli/playground_23.jpg","","","","",""
"","null","image-keyboard-response","323","2.0.0","334062","pbtb0o7fkvk","camel","stimuli/woods_42.jpg","null","","","","","woods","A","non-repeat","null","276","stimuli/woods_42.jpg","","","","",""
"","null","image-keyboard-response","324","2.0.0","335080","pbtb0o7fkvk","camel","stimuli/bar_10.jpg","null","","","","","bar","B","non-repeat","null","277","stimuli/bar_10.jpg","","","","",""
"","null","image-keyboard-response","325","2.0.0","336083","pbtb0o7fkvk","camel","stimuli/bathroom_63.jpg","null","","","","","bathroom","C","non-repeat","null","278","stimuli/bathroom_63.jpg","","","","",""
"","null","image-keyboard-response","326","2.0.0","337085","pbtb0o7fkvk","camel","stimuli/gym_24.jpg","null","","","","","gym","J","non-repeat","null","279","stimuli/gym_24.jpg","","","","",""
"","null","image-keyboard-response","327","2.0.0","338102","pbtb0o7fkvk","camel","stimuli/coast_64.jpg","null","","","","","coast","K","non-repeat","null","280","stimuli/coast_64.jpg","","","","",""
"","null","image-keyboard-response","328","2.0.0","339117","pbtb0o7fkvk","camel","stimuli/desert_63.jpg","null","","","","","desert","L","non-repeat","null","281","stimuli/desert_63.jpg","","","","",""
"","822","image-keyboard-response","329","2.0.0","340132","pbtb0o7fkvk","camel","stimuli/desert_63.jpg"," ","","","","","desert","L","repeat"," ","281","","","","","",""
"","null","image-keyboard-response","330","2.0.0","341148","pbtb0o7fkvk","camel","stimuli/woods_42.jpg","null","","","","","woods","A","non-repeat","null","282","stimuli/woods_42.jpg","","","","",""
"","null","image-keyboard-response","331","2.0.0","342160","pbtb0o7fkvk","camel","stimuli/bar_10.jpg","null","","","","","bar","B","non-repeat","null","283","stimuli/bar_10.jpg","","","","",""
"","null","image-keyboard-response","332","2.0.0","343176","pbtb0o7fkvk","camel","stimuli/bathroom_63.jpg","null","","","","","bathroom","C","non-repeat","null","284","stimuli/bathroom_63.jpg","","","","",""
"","null","image-keyboard-response","333","2.0.0","344192","pbtb0o7fkvk","camel","stimuli/bathroom_63.jpg","null","","","","","bathroom","C","repeat"," ","284","","","","","",""
"","null","image-keyboard-response","334","2.0.0","345207","pbtb0o7fkvk","camel","stimuli/bridge_55.jpg","null","","","","","bridge","G","non-repeat","null","285","stimuli/bridge_55.jpg","","","","",""
"","null","image-keyboard-response","335","2.0.0","346222","pbtb0o7fkvk","camel","stimuli/field_18.jpg","null","","","","","field","H","non-repeat","null","286","stimuli/field_18.jpg","","","","",""
"","null","image-keyboard-response","336","2.0.0","347239","pbtb0o7fkvk","camel","stimuli/playground_23.jpg","null","","","","","playground","I","non-repeat","null","287","stimuli/playground_23.jpg","","","","",""
"","null","image-keyboard-response","337","2.0.0","348252","pbtb0o7fkvk","camel","stimuli/woods_42.jpg","null","","","","","woods","A","non-repeat","null","288","stimuli/woods_42.jpg","","","","",""
"","null","image-keyboard-response","338","2.0.0","349262","pbtb0o7fkvk","camel","stimuli/bar_10.jpg","null","","","","","bar","B","non-repeat","null","289","stimuli/bar_10.jpg","","","","",""
"","null","image-keyboard-response","339","2.0.0","350278","pbtb0o7fkvk","camel","stimuli/bathroom_63.jpg","null","","","","","bathroom","C","non-repeat","null","290","stimuli/bathroom_63.jpg","","","","",""
"","360","image-keyboard-response","340","2.0.0","351291","pbtb0o7fkvk","camel","stimuli/gym_24.jpg"," ","","","","","gym","J","non-repeat","null","291","stimuli/gym_24.jpg","","","","",""
"","null","image-keyboard-response","341","2.0.0","352292","pbtb0o7fkvk","camel","stimuli/coast_64.jpg","null","","","","","coast","K","non-repeat","null","292","stimuli/coast_64.jpg","","","","",""
"","null","image-keyboard-response","342","2.0.0","353307","pbtb0o7fkvk","camel","stimuli/desert_63.jpg","null","","","","","desert","L","non-repeat","null","293","stimuli/desert_63.jpg","","","","",""
"","405","image-keyboard-response","343","2.0.0","354323","pbtb0o7fkvk","camel","stimuli/desert_63.jpg"," ","","","","","desert","L","repeat"," ","293","","","","","",""
"","null","image-keyboard-response","344","2.0.0","355337","pbtb0o7fkvk","camel","stimuli/kitchen_29.jpg","null","","","","","kitchen","D","non-repeat","null","294","stimuli/kitchen_29.jpg","","","","",""
"","null","image-keyboard-response","345","2.0.0","356348","pbtb0o7fkvk","camel","stimuli/street_56.jpg","null","","","","","street","E","non-repeat","null","295","stimuli/street_56.jpg","","","","",""
"","null","image-keyboard-response","346","2.0.0","357364","pbtb0o7fkvk","camel","stimuli/stream_45.jpg","null","","","","","stream","F","non-repeat","null","296","stimuli/stream_45.jpg","","","","",""
"","null","image-keyboard-response","347","2.0.0","358378","pbtb0o7fkvk","camel","stimuli/gym_24.jpg","null","","","","","gym","J","non-repeat","null","297","stimuli/gym_24.jpg","","","","",""
"","null","image-keyboard-response","348","2.0.0","359391","pbtb0o7fkvk","camel","stimuli/coast_64.jpg","null","","","","","coast","K","non-repeat","null","298","stimuli/coast_64.jpg","","","","",""
"","null","image-keyboard-response","349","2.0.0","360404","pbtb0o7fkvk","camel","stimuli/desert_63.jpg","null","","","","","desert","L","non-repeat","null","299","stimuli/desert_63.jpg","","","","",""
"","603","image-keyboard-response","350","2.0.0","361412","pbtb0o7fkvk","camel","stimuli/desert_63.jpg"," ","","","","","desert","L","repeat"," ","299","","","","","",""
"","null","image-keyboard-response","351","2.0.0","362425","pbtb0o7fkvk","camel","stimuli/kitchen_29.jpg","null","","","","","kitchen","D","non-repeat","null","300","stimuli/kitchen_29.jpg","","","","",""
"","null","image-keyboard-response","352","2.0.0","363427","pbtb0o7fkvk","camel","stimuli/kitchen_29.jpg","null","","","","","kitchen","D","repeat"," ","300","","","","","",""
"","null","image-keyboard-response","353","2.0.0","364441","pbtb0o7fkvk","camel","stimuli/street_56.jpg","null","","","","","street","E","non-repeat","null","301","stimuli/street_56.jpg","","","","",""
"","null","image-keyboard-response","354","2.0.0","365454","pbtb0o7fkvk","camel","stimuli/stream_45.jpg","null","","","","","stream","F","non-repeat","null","302","stimuli/stream_45.jpg","","","","",""
"","null","image-keyboard-response","355","2.0.0","366469","pbtb0o7fkvk","camel","stimuli/bridge_55.jpg","null","","","","","bridge","G","non-repeat","null","303","stimuli/bridge_55.jpg","","","","",""
"","null","image-keyboard-response","356","2.0.0","367470","pbtb0o7fkvk","camel","stimuli/field_18.jpg","null","","","","","field","H","non-repeat","null","304","stimuli/field_18.jpg","","","","",""
"","null","image-keyboard-response","357","2.0.0","368485","pbtb0o7fkvk","camel","stimuli/playground_23.jpg","null","","","","","playground","I","non-repeat","null","305","stimuli/playground_23.jpg","","","","",""
"","null","image-keyboard-response","358","2.0.0","369488","pbtb0o7fkvk","camel","stimuli/gym_24.jpg","null","","","","","gym","J","non-repeat","null","306","stimuli/gym_24.jpg","","","","",""
"","null","image-keyboard-response","359","2.0.0","370502","pbtb0o7fkvk","camel","stimuli/coast_64.jpg","null","","","","","coast","K","non-repeat","null","307","stimuli/coast_64.jpg","","","","",""
"","null","image-keyboard-response","360","2.0.0","371519","pbtb0o7fkvk","camel","stimuli/desert_63.jpg","null","","","","","desert","L","non-repeat","null","308","stimuli/desert_63.jpg","","","","",""
"","null","image-keyboard-response","361","2.0.0","372532","pbtb0o7fkvk","camel","stimuli/kitchen_29.jpg","null","","","","","kitchen","D","non-repeat","null","309","stimuli/kitchen_29.jpg","","","","",""
"","null","image-keyboard-response","362","2.0.0","373538","pbtb0o7fkvk","camel","stimuli/street_56.jpg","null","","","","","street","E","non-repeat","null","310","stimuli/street_56.jpg","","","","",""
"","null","image-keyboard-response","363","2.0.0","374554","pbtb0o7fkvk","camel","stimuli/stream_45.jpg","null","","","","","stream","F","non-repeat","null","311","stimuli/stream_45.jpg","","","","",""
"","null","image-keyboard-response","364","2.0.0","375569","pbtb0o7fkvk","camel","stimuli/woods_42.jpg","null","","","","","woods","A","non-repeat","null","312","stimuli/woods_42.jpg","","","","",""
"","null","image-keyboard-response","365","2.0.0","376586","pbtb0o7fkvk","camel","stimuli/bar_10.jpg","null","","","","","bar","B","non-repeat","null","313","stimuli/bar_10.jpg","","","","",""
"","null","image-keyboard-response","366","2.0.0","377600","pbtb0o7fkvk","camel","stimuli/bathroom_63.jpg","null","","","","","bathroom","C","non-repeat","null","314","stimuli/bathroom_63.jpg","","","","",""
"","null","image-keyboard-response","367","2.0.0","378615","pbtb0o7fkvk","camel","stimuli/gym_24.jpg","null","","","","","gym","J","non-repeat","null","315","stimuli/gym_24.jpg","","","","",""
"","null","image-keyboard-response","368","2.0.0","379631","pbtb0o7fkvk","camel","stimuli/coast_64.jpg","null","","","","","coast","K","non-repeat","null","316","stimuli/coast_64.jpg","","","","",""
"","null","image-keyboard-response","369","2.0.0","380643","pbtb0o7fkvk","camel","stimuli/desert_63.jpg","null","","","","","desert","L","non-repeat","null","317","stimuli/desert_63.jpg","","","","",""
"","null","image-keyboard-response","370","2.0.0","381656","pbtb0o7fkvk","camel","stimuli/bridge_55.jpg","null","","","","","bridge","G","non-repeat","null","318","stimuli/bridge_55.jpg","","","","",""
"","null","image-keyboard-response","371","2.0.0","382670","pbtb0o7fkvk","camel","stimuli/field_18.jpg","null","","","","","field","H","non-repeat","null","319","stimuli/field_18.jpg","","","","",""
"","null","image-keyboard-response","372","2.0.0","383684","pbtb0o7fkvk","camel","stimuli/playground_23.jpg","null","","","","","playground","I","non-repeat","null","320","stimuli/playground_23.jpg","","","","",""
"","null","image-keyboard-response","373","2.0.0","384699","pbtb0o7fkvk","camel","stimuli/gym_24.jpg","null","","","","","gym","J","non-repeat","null","321","stimuli/gym_24.jpg","","","","",""
"","null","image-keyboard-response","374","2.0.0","385714","pbtb0o7fkvk","camel","stimuli/coast_64.jpg","null","","","","","coast","K","non-repeat","null","322","stimuli/coast_64.jpg","","","","",""
"","null","image-keyboard-response","375","2.0.0","386729","pbtb0o7fkvk","camel","stimuli/desert_63.jpg","null","","","","","desert","L","non-repeat","null","323","stimuli/desert_63.jpg","","","","",""
"","null","image-keyboard-response","376","2.0.0","387745","pbtb0o7fkvk","camel","stimuli/woods_42.jpg","null","","","","","woods","A","non-repeat","null","324","stimuli/woods_42.jpg","","","","",""
"","null","image-keyboard-response","377","2.0.0","388746","pbtb0o7fkvk","camel","stimuli/bar_10.jpg","null","","","","","bar","B","non-repeat","null","325","stimuli/bar_10.jpg","","","","",""
"","null","image-keyboard-response","378","2.0.0","389760","pbtb0o7fkvk","camel","stimuli/bathroom_63.jpg","null","","","","","bathroom","C","non-repeat","null","326","stimuli/bathroom_63.jpg","","","","",""
"","null","image-keyboard-response","379","2.0.0","390776","pbtb0o7fkvk","camel","stimuli/gym_24.jpg","null","","","","","gym","J","non-repeat","null","327","stimuli/gym_24.jpg","","","","",""
"","null","image-keyboard-response","380","2.0.0","391792","pbtb0o7fkvk","camel","stimuli/coast_64.jpg","null","","","","","coast","K","non-repeat","null","328","stimuli/coast_64.jpg","","","","",""
"","null","image-keyboard-response","381","2.0.0","392792","pbtb0o7fkvk","camel","stimuli/desert_63.jpg","null","","","","","desert","L","non-repeat","null","329","stimuli/desert_63.jpg","","","","",""
"","null","image-keyboard-response","382","2.0.0","393805","pbtb0o7fkvk","camel","stimuli/kitchen_29.jpg","null","","","","","kitchen","D","non-repeat","null","330","stimuli/kitchen_29.jpg","","","","",""
"","null","image-keyboard-response","383","2.0.0","394820","pbtb0o7fkvk","camel","stimuli/street_56.jpg","null","","","","","street","E","non-repeat","null","331","stimuli/street_56.jpg","","","","",""
"","null","image-keyboard-response","384","2.0.0","395834","pbtb0o7fkvk","camel","stimuli/stream_45.jpg","null","","","","","stream","F","non-repeat","null","332","stimuli/stream_45.jpg","","","","",""
"","null","image-keyboard-response","385","2.0.0","396846","pbtb0o7fkvk","camel","stimuli/bridge_55.jpg","null","","","","","bridge","G","non-repeat","null","333","stimuli/bridge_55.jpg","","","","",""
"","null","image-keyboard-response","386","2.0.0","397859","pbtb0o7fkvk","camel","stimuli/field_18.jpg","null","","","","","field","H","non-repeat","null","334","stimuli/field_18.jpg","","","","",""
"","null","image-keyboard-response","387","2.0.0","398876","pbtb0o7fkvk","camel","stimuli/playground_23.jpg","null","","","","","playground","I","non-repeat","null","335","stimuli/playground_23.jpg","","","","",""
"","null","image-keyboard-response","388","2.0.0","399894","pbtb0o7fkvk","camel","stimuli/woods_42.jpg","null","","","","","woods","A","non-repeat","null","336","stimuli/woods_42.jpg","","","","",""
"","null","image-keyboard-response","389","2.0.0","400905","pbtb0o7fkvk","camel","stimuli/bar_10.jpg","null","","","","","bar","B","non-repeat","null","337","stimuli/bar_10.jpg","","","","",""
"","null","image-keyboard-response","390","2.0.0","401920","pbtb0o7fkvk","camel","stimuli/bathroom_63.jpg","null","","","","","bathroom","C","non-repeat","null","338","stimuli/bathroom_63.jpg","","","","",""
"","null","image-keyboard-response","391","2.0.0","402923","pbtb0o7fkvk","camel","stimuli/kitchen_29.jpg","null","","","","","kitchen","D","non-repeat","null","339","stimuli/kitchen_29.jpg","","","","",""
"","null","image-keyboard-response","392","2.0.0","403938","pbtb0o7fkvk","camel","stimuli/street_56.jpg","null","","","","","street","E","non-repeat","null","340","stimuli/street_56.jpg","","","","",""
"","null","image-keyboard-response","393","2.0.0","404952","pbtb0o7fkvk","camel","stimuli/stream_45.jpg","null","","","","","stream","F","non-repeat","null","341","stimuli/stream_45.jpg","","","","",""
"","null","image-keyboard-response","394","2.0.0","405967","pbtb0o7fkvk","camel","stimuli/bridge_55.jpg","null","","","","","bridge","G","non-repeat","null","342","stimuli/bridge_55.jpg","","","","",""
"","null","image-keyboard-response","395","2.0.0","406982","pbtb0o7fkvk","camel","stimuli/field_18.jpg","null","","","","","field","H","non-repeat","null","343","stimuli/field_18.jpg","","","","",""
"","null","image-keyboard-response","396","2.0.0","407996","pbtb0o7fkvk","camel","stimuli/playground_23.jpg","null","","","","","playground","I","non-repeat","null","344","stimuli/playground_23.jpg","","","","",""
"","null","image-keyboard-response","397","2.0.0","409011","pbtb0o7fkvk","camel","stimuli/woods_42.jpg","null","","","","","woods","A","non-repeat","null","345","stimuli/woods_42.jpg","","","","",""
"","null","image-keyboard-response","398","2.0.0","410013","pbtb0o7fkvk","camel","stimuli/bar_10.jpg","null","","","","","bar","B","non-repeat","null","346","stimuli/bar_10.jpg","","","","",""
"","null","image-keyboard-response","399","2.0.0","411027","pbtb0o7fkvk","camel","stimuli/bathroom_63.jpg","null","","","","","bathroom","C","non-repeat","null","347","stimuli/bathroom_63.jpg","","","","",""
"","null","image-keyboard-response","400","2.0.0","412043","pbtb0o7fkvk","camel","stimuli/bathroom_63.jpg","null","","","","","bathroom","C","repeat"," ","347","","","","","",""
"","null","image-keyboard-response","401","2.0.0","413055","pbtb0o7fkvk","camel","stimuli/kitchen_29.jpg","null","","","","","kitchen","D","non-repeat","null","348","stimuli/kitchen_29.jpg","","","","",""
"","null","image-keyboard-response","402","2.0.0","414069","pbtb0o7fkvk","camel","stimuli/street_56.jpg","null","","","","","street","E","non-repeat","null","349","stimuli/street_56.jpg","","","","",""
"","null","image-keyboard-response","403","2.0.0","415082","pbtb0o7fkvk","camel","stimuli/stream_45.jpg","null","","","","","stream","F","non-repeat","null","350","stimuli/stream_45.jpg","","","","",""
"","432","image-keyboard-response","404","2.0.0","416096","pbtb0o7fkvk","camel","stimuli/stream_45.jpg"," ","","","","","stream","F","repeat"," ","350","","","","","",""
"","null","image-keyboard-response","405","2.0.0","417111","pbtb0o7fkvk","camel","stimuli/bridge_55.jpg","null","","","","","bridge","G","non-repeat","null","351","stimuli/bridge_55.jpg","","","","",""
"","null","image-keyboard-response","406","2.0.0","418125","pbtb0o7fkvk","camel","stimuli/field_18.jpg","null","","","","","field","H","non-repeat","null","352","stimuli/field_18.jpg","","","","",""
"","null","image-keyboard-response","407","2.0.0","419127","pbtb0o7fkvk","camel","stimuli/playground_23.jpg","null","","","","","playground","I","non-repeat","null","353","stimuli/playground_23.jpg","","","","",""
"","null","image-keyboard-response","408","2.0.0","420139","pbtb0o7fkvk","camel","stimuli/kitchen_29.jpg","null","","","","","kitchen","D","non-repeat","null","354","stimuli/kitchen_29.jpg","","","","",""
"","null","image-keyboard-response","409","2.0.0","421152","pbtb0o7fkvk","camel","stimuli/street_56.jpg","null","","","","","street","E","non-repeat","null","355","stimuli/street_56.jpg","","","","",""
"","null","image-keyboard-response","410","2.0.0","422169","pbtb0o7fkvk","camel","stimuli/stream_45.jpg","null","","","","","stream","F","non-repeat","null","356","stimuli/stream_45.jpg","","","","",""
"","539","image-keyboard-response","411","2.0.0","423170","pbtb0o7fkvk","camel","stimuli/stream_45.jpg"," ","","","","","stream","F","repeat"," ","356","","","","","",""
"","null","image-keyboard-response","412","2.0.0","424181","pbtb0o7fkvk","camel","stimuli/bridge_55.jpg","null","","","","","bridge","G","non-repeat","null","357","stimuli/bridge_55.jpg","","","","",""
"","null","image-keyboard-response","413","2.0.0","425193","pbtb0o7fkvk","camel","stimuli/bridge_55.jpg","null","","","","","bridge","G","repeat"," ","357","","","","","",""
"","null","image-keyboard-response","414","2.0.0","426208","pbtb0o7fkvk","camel","stimuli/field_18.jpg","null","","","","","field","H","non-repeat","null","358","stimuli/field_18.jpg","","","","",""
"","null","image-keyboard-response","415","2.0.0","427221","pbtb0o7fkvk","camel","stimuli/playground_23.jpg","null","","","","","playground","I","non-repeat","null","359","stimuli/playground_23.jpg","","","","",""
"","null","image-keyboard-response","416","2.0.0","428235","pbtb0o7fkvk","camel","stimuli/woods_42.jpg","null","","","","","woods","A","non-repeat","null","360","stimuli/woods_42.jpg","","","","",""
"","null","image-keyboard-response","417","2.0.0","429250","pbtb0o7fkvk","camel","stimuli/bar_10.jpg","null","","","","","bar","B","non-repeat","null","361","stimuli/bar_10.jpg","","","","",""
"","null","image-keyboard-response","418","2.0.0","430265","pbtb0o7fkvk","camel","stimuli/bathroom_63.jpg","null","","","","","bathroom","C","non-repeat","null","362","stimuli/bathroom_63.jpg","","","","",""
"","null","image-keyboard-response","419","2.0.0","431280","pbtb0o7fkvk","camel","stimuli/bridge_55.jpg","null","","","","","bridge","G","non-repeat","null","363","stimuli/bridge_55.jpg","","","","",""
"","null","image-keyboard-response","420","2.0.0","432283","pbtb0o7fkvk","camel","stimuli/field_18.jpg","null","","","","","field","H","non-repeat","null","364","stimuli/field_18.jpg","","","","",""
"","null","image-keyboard-response","421","2.0.0","433299","pbtb0o7fkvk","camel","stimuli/playground_23.jpg","null","","","","","playground","I","non-repeat","null","365","stimuli/playground_23.jpg","","","","",""
"","null","image-keyboard-response","422","2.0.0","434312","pbtb0o7fkvk","camel","stimuli/gym_24.jpg","null","","","","","gym","J","non-repeat","null","366","stimuli/gym_24.jpg","","","","",""
"","null","image-keyboard-response","423","2.0.0","435324","pbtb0o7fkvk","camel","stimuli/coast_64.jpg","null","","","","","coast","K","non-repeat","null","367","stimuli/coast_64.jpg","","","","",""
"","null","image-keyboard-response","424","2.0.0","436336","pbtb0o7fkvk","camel","stimuli/desert_63.jpg","null","","","","","desert","L","non-repeat","null","368","stimuli/desert_63.jpg","","","","",""
"","null","image-keyboard-response","425","2.0.0","437338","pbtb0o7fkvk","camel","stimuli/desert_63.jpg","null","","","","","desert","L","repeat"," ","368","","","","","",""
"","null","image-keyboard-response","426","2.0.0","438342","pbtb0o7fkvk","camel","stimuli/kitchen_29.jpg","null","","","","","kitchen","D","non-repeat","null","369","stimuli/kitchen_29.jpg","","","","",""
"","null","image-keyboard-response","427","2.0.0","439349","pbtb0o7fkvk","camel","stimuli/street_56.jpg","null","","","","","street","E","non-repeat","null","370","stimuli/street_56.jpg","","","","",""
"","null","image-keyboard-response","428","2.0.0","440362","pbtb0o7fkvk","camel","stimuli/stream_45.jpg","null","","","","","stream","F","non-repeat","null","371","stimuli/stream_45.jpg","","","","",""
"","null","image-keyboard-response","429","2.0.0","441374","pbtb0o7fkvk","camel","stimuli/gym_24.jpg","null","","","","","gym","J","non-repeat","null","372","stimuli/gym_24.jpg","","","","",""
"","610","image-keyboard-response","430","2.0.0","442389","pbtb0o7fkvk","camel","stimuli/gym_24.jpg"," ","","","","","gym","J","repeat"," ","372","","","","","",""
"","null","image-keyboard-response","431","2.0.0","443391","pbtb0o7fkvk","camel","stimuli/coast_64.jpg","null","","","","","coast","K","non-repeat","null","373","stimuli/coast_64.jpg","","","","",""
"","null","image-keyboard-response","432","2.0.0","444406","pbtb0o7fkvk","camel","stimuli/desert_63.jpg","null","","","","","desert","L","non-repeat","null","374","stimuli/desert_63.jpg","","","","",""
"","null","image-keyboard-response","433","2.0.0","445421","pbtb0o7fkvk","camel","stimuli/woods_42.jpg","null","","","","","woods","A","non-repeat","null","375","stimuli/woods_42.jpg","","","","",""
"","null","image-keyboard-response","434","2.0.0","446434","pbtb0o7fkvk","camel","stimuli/bar_10.jpg","null","","","","","bar","B","non-repeat","null","376","stimuli/bar_10.jpg","","","","",""
"","null","image-keyboard-response","435","2.0.0","447447","pbtb0o7fkvk","camel","stimuli/bathroom_63.jpg","null","","","","","bathroom","C","non-repeat","null","377","stimuli/bathroom_63.jpg","","","","",""
"","null","image-keyboard-response","436","2.0.0","448462","pbtb0o7fkvk","camel","stimuli/gym_24.jpg","null","","","","","gym","J","non-repeat","null","378","stimuli/gym_24.jpg","","","","",""
"","null","image-keyboard-response","437","2.0.0","449468","pbtb0o7fkvk","camel","stimuli/coast_64.jpg","null","","","","","coast","K","non-repeat","null","379","stimuli/coast_64.jpg","","","","",""
"","null","image-keyboard-response","438","2.0.0","450473","pbtb0o7fkvk","camel","stimuli/desert_63.jpg","null","","","","","desert","L","non-repeat","null","380","stimuli/desert_63.jpg","","","","",""
"","null","image-keyboard-response","439","2.0.0","451477","pbtb0o7fkvk","camel","stimuli/woods_42.jpg","null","","","","","woods","A","non-repeat","null","381","stimuli/woods_42.jpg","","","","",""
"","null","image-keyboard-response","440","2.0.0","452492","pbtb0o7fkvk","camel","stimuli/bar_10.jpg","null","","","","","bar","B","non-repeat","null","382","stimuli/bar_10.jpg","","","","",""
"","null","image-keyboard-response","441","2.0.0","453508","pbtb0o7fkvk","camel","stimuli/bathroom_63.jpg","null","","","","","bathroom","C","non-repeat","null","383","stimuli/bathroom_63.jpg","","","","",""
"","null","image-keyboard-response","442","2.0.0","454509","pbtb0o7fkvk","camel","stimuli/gym_24.jpg","null","","","","","gym","J","non-repeat","null","384","stimuli/gym_24.jpg","","","","",""
"","null","image-keyboard-response","443","2.0.0","455523","pbtb0o7fkvk","camel","stimuli/coast_64.jpg","null","","","","","coast","K","non-repeat","null","385","stimuli/coast_64.jpg","","","","",""
"","null","image-keyboard-response","444","2.0.0","456534","pbtb0o7fkvk","camel","stimuli/desert_63.jpg","null","","","","","desert","L","non-repeat","null","386","stimuli/desert_63.jpg","","","","",""
"","null","image-keyboard-response","445","2.0.0","457549","pbtb0o7fkvk","camel","stimuli/desert_63.jpg","null","","","","","desert","L","repeat"," ","386","","","","","",""
"","null","image-keyboard-response","446","2.0.0","458565","pbtb0o7fkvk","camel","stimuli/kitchen_29.jpg","null","","","","","kitchen","D","non-repeat","null","387","stimuli/kitchen_29.jpg","","","","",""
"","null","image-keyboard-response","447","2.0.0","459581","pbtb0o7fkvk","camel","stimuli/street_56.jpg","null","","","","","street","E","non-repeat","null","388","stimuli/street_56.jpg","","","","",""
"","null","image-keyboard-response","448","2.0.0","460593","pbtb0o7fkvk","camel","stimuli/stream_45.jpg","null","","","","","stream","F","non-repeat","null","389","stimuli/stream_45.jpg","","","","",""
"","null","image-keyboard-response","449","2.0.0","461609","pbtb0o7fkvk","camel","stimuli/gym_24.jpg","null","","","","","gym","J","non-repeat","null","390","stimuli/gym_24.jpg","","","","",""
"","null","image-keyboard-response","450","2.0.0","462623","pbtb0o7fkvk","camel","stimuli/coast_64.jpg","null","","","","","coast","K","non-repeat","null","391","stimuli/coast_64.jpg","","","","",""
"","null","image-keyboard-response","451","2.0.0","463637","pbtb0o7fkvk","camel","stimuli/desert_63.jpg","null","","","","","desert","L","non-repeat","null","392","stimuli/desert_63.jpg","","","","",""
"","null","image-keyboard-response","452","2.0.0","464649","pbtb0o7fkvk","camel","stimuli/woods_42.jpg","null","","","","","woods","A","non-repeat","null","393","stimuli/woods_42.jpg","","","","",""
"","null","image-keyboard-response","453","2.0.0","465663","pbtb0o7fkvk","camel","stimuli/bar_10.jpg","null","","","","","bar","B","non-repeat","null","394","stimuli/bar_10.jpg","","","","",""
"","null","image-keyboard-response","454","2.0.0","466678","pbtb0o7fkvk","camel","stimuli/bathroom_63.jpg","null","","","","","bathroom","C","non-repeat","null","395","stimuli/bathroom_63.jpg","","","","",""
"","null","image-keyboard-response","455","2.0.0","467693","pbtb0o7fkvk","camel","stimuli/kitchen_29.jpg","null","","","","","kitchen","D","non-repeat","null","396","stimuli/kitchen_29.jpg","","","","",""
"","null","image-keyboard-response","456","2.0.0","468708","pbtb0o7fkvk","camel","stimuli/street_56.jpg","null","","","","","street","E","non-repeat","null","397","stimuli/street_56.jpg","","","","",""
"","null","image-keyboard-response","457","2.0.0","469721","pbtb0o7fkvk","camel","stimuli/stream_45.jpg","null","","","","","stream","F","non-repeat","null","398","stimuli/stream_45.jpg","","","","",""
"","null","image-keyboard-response","458","2.0.0","470737","pbtb0o7fkvk","camel","stimuli/woods_42.jpg","null","","","","","woods","A","non-repeat","null","399","stimuli/woods_42.jpg","","","","",""
"","null","image-keyboard-response","459","2.0.0","471741","pbtb0o7fkvk","camel","stimuli/bar_10.jpg","null","","","","","bar","B","non-repeat","null","400","stimuli/bar_10.jpg","","","","",""
"","null","image-keyboard-response","460","2.0.0","472755","pbtb0o7fkvk","camel","stimuli/bathroom_63.jpg","null","","","","","bathroom","C","non-repeat","null","401","stimuli/bathroom_63.jpg","","","","",""
"","null","image-keyboard-response","461","2.0.0","473756","pbtb0o7fkvk","camel","stimuli/bridge_55.jpg","null","","","","","bridge","G","non-repeat","null","402","stimuli/bridge_55.jpg","","","","",""
"","null","image-keyboard-response","462","2.0.0","474760","pbtb0o7fkvk","camel","stimuli/field_18.jpg","null","","","","","field","H","non-repeat","null","403","stimuli/field_18.jpg","","","","",""
"","null","image-keyboard-response","463","2.0.0","475775","pbtb0o7fkvk","camel","stimuli/playground_23.jpg","null","","","","","playground","I","non-repeat","null","404","stimuli/playground_23.jpg","","","","",""
"","null","image-keyboard-response","464","2.0.0","476788","pbtb0o7fkvk","camel","stimuli/woods_42.jpg","null","","","","","woods","A","non-repeat","null","405","stimuli/woods_42.jpg","","","","",""
"","null","image-keyboard-response","465","2.0.0","477795","pbtb0o7fkvk","camel","stimuli/bar_10.jpg","null","","","","","bar","B","non-repeat","null","406","stimuli/bar_10.jpg","","","","",""
"","null","image-keyboard-response","466","2.0.0","478799","pbtb0o7fkvk","camel","stimuli/bathroom_63.jpg","null","","","","","bathroom","C","non-repeat","null","407","stimuli/bathroom_63.jpg","","","","",""
"","1949","html-keyboard-response","467","2.0.0","480748","pbtb0o7fkvk","camel","
    <p>For this trial, you will see a sequneces of images.</p>
    <p>Press 1 or 2 if the first or second sequence felt familiar..</p>
    <p>Press any key to begin.</p>"," ","","","","","","","","","","","","","","",""
"","null","html-keyboard-response","468","2.0.0","481750","pbtb0o7fkvk","camel","<p>Sequence 1</p>","null","","","","","","","","","","","","","","",""
"","null","image-keyboard-response","469","2.0.0","482812","pbtb0o7fkvk","camel","stimuli/woods_42.jpg","null","","","","","","","","","","","","","","",""
"","null","image-keyboard-response","470","2.0.0","483829","pbtb0o7fkvk","camel","stimuli/bar_10.jpg","null","","","","","","","","","","","","","","",""
"","null","image-keyboard-response","471","2.0.0","484842","pbtb0o7fkvk","camel","stimuli/bathroom_63.jpg","null","","","","","","","","","","","","","","",""
"","null","html-keyboard-response","472","2.0.0","485844","pbtb0o7fkvk","camel","<p></p>","null","","","","","","","","","","","","","","",""
"","null","html-keyboard-response","473","2.0.0","486857","pbtb0o7fkvk","camel","<p>Sequence 2</p>","null","","","","","","","","","","","","","","",""
"","null","image-keyboard-response","474","2.0.0","487858","pbtb0o7fkvk","camel","stimuli/woods_42.jpg","null","","","","","","","","","","","","","","",""
"","null","image-keyboard-response","475","2.0.0","488860","pbtb0o7fkvk","camel","stimuli/street_56.jpg","null","","","","","","","","","","","","","","",""
"","null","image-keyboard-response","476","2.0.0","489865","pbtb0o7fkvk","camel","stimuli/playground_23.jpg","null","","","","","","","","","","","","","","",""
"","1894","html-keyboard-response","477","2.0.0","491760","pbtb0o7fkvk","camel","<p>Press '1' if the first sequence was familiar, '2' if the second was.</p>","2","","","","","","","1","","","","[""A"",""B"",""C""]","[""A"",""E"",""I""]","false","[""<p>Sequence 1</p>"",""stimuli/woods_42.jpg"",""stimuli/bar_10.jpg"",""stimuli/bathroom_63.jpg""]","[""<p>Sequence 2</p>"",""stimuli/woods_42.jpg"",""stimuli/street_56.jpg"",""stimuli/playground_23.jpg""]"
"","null","html-keyboard-response","478","2.0.0","492770","pbtb0o7fkvk","camel","<p>Sequence 1</p>","null","","","","","","","","","","","","","","",""
"","null","image-keyboard-response","479","2.0.0","493772","pbtb0o7fkvk","camel","stimuli/woods_42.jpg","null","","","","","","","","","","","","","","",""
"","null","image-keyboard-response","480","2.0.0","494783","pbtb0o7fkvk","camel","stimuli/bar_10.jpg","null","","","","","","","","","","","","","","",""
"","null","image-keyboard-response","481","2.0.0","495791","pbtb0o7fkvk","camel","stimuli/bathroom_63.jpg","null","","","","","","","","","","","","","","",""
"","null","html-keyboard-response","482","2.0.0","496801","pbtb0o7fkvk","camel","<p></p>","null","","","","","","","","","","","","","","",""
"","null","html-keyboard-response","483","2.0.0","497807","pbtb0o7fkvk","camel","<p>Sequence 2</p>","null","","","","","","","","","","","","","","",""
"","null","image-keyboard-response","484","2.0.0","498817","pbtb0o7fkvk","camel","stimuli/kitchen_29.jpg","null","","","","","","","","","","","","","","",""
"","null","image-keyboard-response","485","2.0.0","499832","pbtb0o7fkvk","camel","stimuli/field_18.jpg","null","","","","","","","","","","","","","","",""
"","null","image-keyboard-response","486","2.0.0","500848","pbtb0o7fkvk","camel","stimuli/desert_63.jpg","null","","","","","","","","","","","","","","",""
"","293","html-keyboard-response","487","2.0.0","501141","pbtb0o7fkvk","camel","<p>Press '1' if the first sequence was familiar, '2' if the second was.</p>","1","","","","","","","1","","","","[""A"",""B"",""C""]","[""D"",""H"",""L""]","true","[""<p>Sequence 1</p>"",""stimuli/woods_42.jpg"",""stimuli/bar_10.jpg"",""stimuli/bathroom_63.jpg""]","[""<p>Sequence 2</p>"",""stimuli/kitchen_29.jpg"",""stimuli/field_18.jpg"",""stimuli/desert_63.jpg""]"
"","null","html-keyboard-response","488","2.0.0","502158","pbtb0o7fkvk","camel","<p>Sequence 1</p>","null","","","","","","","","","","","","","","",""
"","null","image-keyboard-response","489","2.0.0","503172","pbtb0o7fkvk","camel","stimuli/bridge_55.jpg","null","","","","","","","","","","","","","","",""
"","null","image-keyboard-response","490","2.0.0","504188","pbtb0o7fkvk","camel","stimuli/coast_64.jpg","null","","","","","","","","","","","","","","",""
"","null","image-keyboard-response","491","2.0.0","505201","pbtb0o7fkvk","camel","stimuli/bathroom_63.jpg","null","","","","","","","","","","","","","","",""
"","null","html-keyboard-response","492","2.0.0","506203","pbtb0o7fkvk","camel","<p></p>","null","","","","","","","","","","","","","","",""
"","null","html-keyboard-response","493","2.0.0","507218","pbtb0o7fkvk","camel","<p>Sequence 2</p>","null","","","","","","","","","","","","","","",""
"","null","image-keyboard-response","494","2.0.0","508232","pbtb0o7fkvk","camel","stimuli/woods_42.jpg","null","","","","","","","","","","","","","","",""
"","null","image-keyboard-response","495","2.0.0","509233","pbtb0o7fkvk","camel","stimuli/bar_10.jpg","null","","","","","","","","","","","","","","",""
"","null","image-keyboard-response","496","2.0.0","510248","pbtb0o7fkvk","camel","stimuli/bathroom_63.jpg","null","","","","","","","","","","","","","","",""
"","398","html-keyboard-response","497","2.0.0","510646","pbtb0o7fkvk","camel","<p>Press '1' if the first sequence was familiar, '2' if the second was.</p>","2","","","","","","","2","","","","[""A"",""B"",""C""]","[""G"",""K"",""C""]","true","[""<p>Sequence 1</p>"",""stimuli/bridge_55.jpg"",""stimuli/coast_64.jpg"",""stimuli/bathroom_63.jpg""]","[""<p>Sequence 2</p>"",""stimuli/woods_42.jpg"",""stimuli/bar_10.jpg"",""stimuli/bathroom_63.jpg""]"
"","null","html-keyboard-response","498","2.0.0","511648","pbtb0o7fkvk","camel","<p>Sequence 1</p>","null","","","","","","","","","","","","","","",""
"","null","image-keyboard-response","499","2.0.0","512662","pbtb0o7fkvk","camel","stimuli/woods_42.jpg","null","","","","","","","","","","","","","","",""
"","null","image-keyboard-response","500","2.0.0","513663","pbtb0o7fkvk","camel","stimuli/bar_10.jpg","null","","","","","","","","","","","","","","",""
"","null","image-keyboard-response","501","2.0.0","514676","pbtb0o7fkvk","camel","stimuli/bathroom_63.jpg","null","","","","","","","","","","","","","","",""
"","null","html-keyboard-response","502","2.0.0","515691","pbtb0o7fkvk","camel","<p></p>","null","","","","","","","","","","","","","","",""
"","null","html-keyboard-response","503","2.0.0","516706","pbtb0o7fkvk","camel","<p>Sequence 2</p>","null","","","","","","","","","","","","","","",""
"","null","image-keyboard-response","504","2.0.0","517708","pbtb0o7fkvk","camel","stimuli/gym_24.jpg","null","","","","","","","","","","","","","","",""
"","null","image-keyboard-response","505","2.0.0","518713","pbtb0o7fkvk","camel","stimuli/bar_10.jpg","null","","","","","","","","","","","","","","",""
