"success","rt","trial_type","trial_index","plugin_version","time_elapsed","random_id","participant","stimulus","response","timeout","failed_images","failed_audio","failed_video","category","letter","correct_response","correct_response_key","trial_counter","current_image","test_triplet","foil_triplet","correct","firstSequencePaths","secondSequencePaths"
"true","795","fullscreen","0","null","1800","peefa9q8jxy","leopard","","","","","","","","","","","","","","","","",""
"","1517","html-keyboard-response","1","2.0.0","3318","peefa9q8jxy","leopard","Welcome to the experiment. Press any key to begin.","d","","","","","","","","","","","","","","",""
"","1263","survey-text","2","2.0.0","4583","peefa9q8jxy","leopard","","{""participant_id"":""leopard""}","","","","","","","","","","","","","","",""
"","1999","html-keyboard-response","3","2.0.0","6583","peefa9q8jxy","leopard","
  <p>For this trial, you will see a series of images.</p>
  <p>Press the spacebar whenever you see a repeat of an image back to back.</p>
  <p>Press any key to begin.</p>"," ","","","","","","","","","","","","","","",""
"true","","preload","4","2.0.0","7163","peefa9q8jxy","leopard","","","false","[]","[]","[]","","","","","","","","","","",""
"","null","image-keyboard-response","5","2.0.0","8178","peefa9q8jxy","leopard","stimuli/stream_57.jpg","null","","","","","stream","D","non-repeat","null","0","stimuli/stream_57.jpg","","","","",""
"","null","image-keyboard-response","6","2.0.0","9184","peefa9q8jxy","leopard","stimuli/playground_14.jpg","null","","","","","playground","E","non-repeat","null","1","stimuli/playground_14.jpg","","","","",""
"","null","image-keyboard-response","7","2.0.0","10189","peefa9q8jxy","leopard","stimuli/woods_46.jpg","null","","","","","woods","F","non-repeat","null","2","stimuli/woods_46.jpg","","","","",""
"","null","image-keyboard-response","8","2.0.0","11192","peefa9q8jxy","leopard","stimuli/field_32.jpg","null","","","","","field","A","non-repeat","null","3","stimuli/field_32.jpg","","","","",""
"","null","image-keyboard-response","9","2.0.0","12194","peefa9q8jxy","leopard","stimuli/street_15.jpg","null","","","","","street","B","non-repeat","null","4","stimuli/street_15.jpg","","","","",""
"","null","image-keyboard-response","10","2.0.0","13201","peefa9q8jxy","leopard","stimuli/gym_68.jpg","null","","","","","gym","C","non-repeat","null","5","stimuli/gym_68.jpg","","","","",""
"","396","image-keyboard-response","11","2.0.0","14205","peefa9q8jxy","leopard","stimuli/gym_68.jpg"," ","","","","","gym","C","repeat"," ","5","","","","","",""
"","null","image-keyboard-response","12","2.0.0","15211","peefa9q8jxy","leopard","stimuli/bridge_55.jpg","null","","","","","bridge","J","non-repeat","null","6","stimuli/bridge_55.jpg","","","","",""
"","null","image-keyboard-response","13","2.0.0","16216","peefa9q8jxy","leopard","stimuli/kitchen_36.jpg","null","","","","","kitchen","K","non-repeat","null","7","stimuli/kitchen_36.jpg","","","","",""
"","null","image-keyboard-response","14","2.0.0","17220","peefa9q8jxy","leopard","stimuli/desert_6.jpg","null","","","","","desert","L","non-repeat","null","8","stimuli/desert_6.jpg","","","","",""
"","null","image-keyboard-response","15","2.0.0","18235","peefa9q8jxy","leopard","stimuli/bar_53.jpg","null","","","","","bar","G","non-repeat","null","9","stimuli/bar_53.jpg","","","","",""
"","null","image-keyboard-response","16","2.0.0","19240","peefa9q8jxy","leopard","stimuli/bathroom_63.jpg","null","","","","","bathroom","H","non-repeat","null","10","stimuli/bathroom_63.jpg","","","","",""
"","null","image-keyboard-response","17","2.0.0","20248","peefa9q8jxy","leopard","stimuli/coast_58.jpg","null","","","","","coast","I","non-repeat","null","11","stimuli/coast_58.jpg","","","","",""
"","null","image-keyboard-response","18","2.0.0","21250","peefa9q8jxy","leopard","stimuli/bridge_55.jpg","null","","","","","bridge","J","non-repeat","null","12","stimuli/bridge_55.jpg","","","","",""
"","null","image-keyboard-response","19","2.0.0","22253","peefa9q8jxy","leopard","stimuli/kitchen_36.jpg","null","","","","","kitchen","K","non-repeat","null","13","stimuli/kitchen_36.jpg","","","","",""
"","null","image-keyboard-response","20","2.0.0","23260","peefa9q8jxy","leopard","stimuli/desert_6.jpg","null","","","","","desert","L","non-repeat","null","14","stimuli/desert_6.jpg","","","","",""
"","600","image-keyboard-response","21","2.0.0","24264","peefa9q8jxy","leopard","stimuli/desert_6.jpg"," ","","","","","desert","L","repeat"," ","14","","","","","",""
"","null","image-keyboard-response","22","2.0.0","25268","peefa9q8jxy","leopard","stimuli/bar_53.jpg","null","","","","","bar","G","non-repeat","null","15","stimuli/bar_53.jpg","","","","",""
"","null","image-keyboard-response","23","2.0.0","26285","peefa9q8jxy","leopard","stimuli/bar_53.jpg","null","","","","","bar","G","repeat"," ","15","","","","","",""
"","null","image-keyboard-response","24","2.0.0","27288","peefa9q8jxy","leopard","stimuli/bathroom_63.jpg","null","","","","","bathroom","H","non-repeat","null","16","stimuli/bathroom_63.jpg","","","","",""
"","null","image-keyboard-response","25","2.0.0","28294","peefa9q8jxy","leopard","stimuli/coast_58.jpg","null","","","","","coast","I","non-repeat","null","17","stimuli/coast_58.jpg","","","","",""
"","null","image-keyboard-response","26","2.0.0","29295","peefa9q8jxy","leopard","stimuli/stream_57.jpg","null","","","","","stream","D","non-repeat","null","18","stimuli/stream_57.jpg","","","","",""
"","588","image-keyboard-response","27","2.0.0","30307","peefa9q8jxy","leopard","stimuli/stream_57.jpg"," ","","","","","stream","D","repeat"," ","18","","","","","",""
"","null","image-keyboard-response","28","2.0.0","31323","peefa9q8jxy","leopard","stimuli/playground_14.jpg","null","","","","","playground","E","non-repeat","null","19","stimuli/playground_14.jpg","","","","",""
"","null","image-keyboard-response","29","2.0.0","32327","peefa9q8jxy","leopard","stimuli/woods_46.jpg","null","","","","","woods","F","non-repeat","null","20","stimuli/woods_46.jpg","","","","",""
"","null","image-keyboard-response","30","2.0.0","33328","peefa9q8jxy","leopard","stimuli/bridge_55.jpg","null","","","","","bridge","J","non-repeat","null","21","stimuli/bridge_55.jpg","","","","",""
"","null","image-keyboard-response","31","2.0.0","34332","peefa9q8jxy","leopard","stimuli/kitchen_36.jpg","null","","","","","kitchen","K","non-repeat","null","22","stimuli/kitchen_36.jpg","","","","",""
"","null","image-keyboard-response","32","2.0.0","35348","peefa9q8jxy","leopard","stimuli/desert_6.jpg","null","","","","","desert","L","non-repeat","null","23","stimuli/desert_6.jpg","","","","",""
"","636","image-keyboard-response","33","2.0.0","36354","peefa9q8jxy","leopard","stimuli/desert_6.jpg"," ","","","","","desert","L","repeat"," ","23","","","","","",""
"","null","image-keyboard-response","34","2.0.0","37358","peefa9q8jxy","leopard","stimuli/bar_53.jpg","null","","","","","bar","G","non-repeat","null","24","stimuli/bar_53.jpg","","","","",""
"","null","image-keyboard-response","35","2.0.0","38374","peefa9q8jxy","leopard","stimuli/bathroom_63.jpg","null","","","","","bathroom","H","non-repeat","null","25","stimuli/bathroom_63.jpg","","","","",""
"","null","image-keyboard-response","36","2.0.0","39376","peefa9q8jxy","leopard","stimuli/coast_58.jpg","null","","","","","coast","I","non-repeat","null","26","stimuli/coast_58.jpg","","","","",""
"","null","image-keyboard-response","37","2.0.0","40381","peefa9q8jxy","leopard","stimuli/bridge_55.jpg","null","","","","","bridge","J","non-repeat","null","27","stimuli/bridge_55.jpg","","","","",""
"","null","image-keyboard-response","38","2.0.0","41391","peefa9q8jxy","leopard","stimuli/kitchen_36.jpg","null","","","","","kitchen","K","non-repeat","null","28","stimuli/kitchen_36.jpg","","","","",""
"","null","image-keyboard-response","39","2.0.0","42394","peefa9q8jxy","leopard","stimuli/desert_6.jpg","null","","","","","desert","L","non-repeat","null","29","stimuli/desert_6.jpg","","","","",""
"","null","image-keyboard-response","40","2.0.0","43396","peefa9q8jxy","leopard","stimuli/field_32.jpg","null","","","","","field","A","non-repeat","null","30","stimuli/field_32.jpg","","","","",""
"","null","image-keyboard-response","41","2.0.0","44411","peefa9q8jxy","leopard","stimuli/street_15.jpg","null","","","","","street","B","non-repeat","null","31","stimuli/street_15.jpg","","","","",""
"","null","image-keyboard-response","42","2.0.0","45427","peefa9q8jxy","leopard","stimuli/gym_68.jpg","null","","","","","gym","C","non-repeat","null","32","stimuli/gym_68.jpg","","","","",""
"","null","image-keyboard-response","43","2.0.0","46429","peefa9q8jxy","leopard","stimuli/bridge_55.jpg","null","","","","","bridge","J","non-repeat","null","33","stimuli/bridge_55.jpg","","","","",""
"","null","image-keyboard-response","44","2.0.0","47432","peefa9q8jxy","leopard","stimuli/kitchen_36.jpg","null","","","","","kitchen","K","non-repeat","null","34","stimuli/kitchen_36.jpg","","","","",""
"","null","image-keyboard-response","45","2.0.0","48434","peefa9q8jxy","leopard","stimuli/desert_6.jpg","null","","","","","desert","L","non-repeat","null","35","stimuli/desert_6.jpg","","","","",""
"","781","image-keyboard-response","46","2.0.0","49436","peefa9q8jxy","leopard","stimuli/desert_6.jpg"," ","","","","","desert","L","repeat"," ","35","","","","","",""
"","null","image-keyboard-response","47","2.0.0","50442","peefa9q8jxy","leopard","stimuli/stream_57.jpg","null","","","","","stream","D","non-repeat","null","36","stimuli/stream_57.jpg","","","","",""
"","null","image-keyboard-response","48","2.0.0","51446","peefa9q8jxy","leopard","stimuli/playground_14.jpg","null","","","","","playground","E","non-repeat","null","37","stimuli/playground_14.jpg","","","","",""
"","null","image-keyboard-response","49","2.0.0","52458","peefa9q8jxy","leopard","stimuli/woods_46.jpg","null","","","","","woods","F","non-repeat","null","38","stimuli/woods_46.jpg","","","","",""
"","null","image-keyboard-response","50","2.0.0","53462","peefa9q8jxy","leopard","stimuli/bridge_55.jpg","null","","","","","bridge","J","non-repeat","null","39","stimuli/bridge_55.jpg","","","","",""
"","719","image-keyboard-response","51","2.0.0","54467","peefa9q8jxy","leopard","stimuli/bridge_55.jpg"," ","","","","","bridge","J","repeat"," ","39","","","","","",""
"","null","image-keyboard-response","52","2.0.0","55470","peefa9q8jxy","leopard","stimuli/kitchen_36.jpg","null","","","","","kitchen","K","non-repeat","null","40","stimuli/kitchen_36.jpg","","","","",""
"","null","image-keyboard-response","53","2.0.0","56477","peefa9q8jxy","leopard","stimuli/desert_6.jpg","null","","","","","desert","L","non-repeat","null","41","stimuli/desert_6.jpg","","","","",""
"","null","image-keyboard-response","54","2.0.0","57492","peefa9q8jxy","leopard","stimuli/bar_53.jpg","null","","","","","bar","G","non-repeat","null","42","stimuli/bar_53.jpg","","","","",""
"","null","image-keyboard-response","55","2.0.0","58508","peefa9q8jxy","leopard","stimuli/bathroom_63.jpg","null","","","","","bathroom","H","non-repeat","null","43","stimuli/bathroom_63.jpg","","","","",""
"","null","image-keyboard-response","56","2.0.0","59525","peefa9q8jxy","leopard","stimuli/coast_58.jpg","null","","","","","coast","I","non-repeat","null","44","stimuli/coast_58.jpg","","","","",""
"","null","image-keyboard-response","57","2.0.0","60528","peefa9q8jxy","leopard","stimuli/bridge_55.jpg","null","","","","","bridge","J","non-repeat","null","45","stimuli/bridge_55.jpg","","","","",""
"","null","image-keyboard-response","58","2.0.0","61543","peefa9q8jxy","leopard","stimuli/kitchen_36.jpg","null","","","","","kitchen","K","non-repeat","null","46","stimuli/kitchen_36.jpg","","","","",""
"","null","image-keyboard-response","59","2.0.0","62547","peefa9q8jxy","leopard","stimuli/desert_6.jpg","null","","","","","desert","L","non-repeat","null","47","stimuli/desert_6.jpg","","","","",""
"","765","image-keyboard-response","60","2.0.0","63549","peefa9q8jxy","leopard","stimuli/desert_6.jpg"," ","","","","","desert","L","repeat"," ","47","","","","","",""
"","null","image-keyboard-response","61","2.0.0","64565","peefa9q8jxy","leopard","stimuli/bar_53.jpg","null","","","","","bar","G","non-repeat","null","48","stimuli/bar_53.jpg","","","","",""
"","null","image-keyboard-response","62","2.0.0","65566","peefa9q8jxy","leopard","stimuli/bathroom_63.jpg","null","","","","","bathroom","H","non-repeat","null","49","stimuli/bathroom_63.jpg","","","","",""
"","null","image-keyboard-response","63","2.0.0","66569","peefa9q8jxy","leopard","stimuli/coast_58.jpg","null","","","","","coast","I","non-repeat","null","50","stimuli/coast_58.jpg","","","","",""
"","null","image-keyboard-response","64","2.0.0","67570","peefa9q8jxy","leopard","stimuli/bridge_55.jpg","null","","","","","bridge","J","non-repeat","null","51","stimuli/bridge_55.jpg","","","","",""
"","null","image-keyboard-response","65","2.0.0","68574","peefa9q8jxy","leopard","stimuli/kitchen_36.jpg","null","","","","","kitchen","K","non-repeat","null","52","stimuli/kitchen_36.jpg","","","","",""
"","null","image-keyboard-response","66","2.0.0","69591","peefa9q8jxy","leopard","stimuli/desert_6.jpg","null","","","","","desert","L","non-repeat","null","53","stimuli/desert_6.jpg","","","","",""
"","null","image-keyboard-response","67","2.0.0","70601","peefa9q8jxy","leopard","stimuli/stream_57.jpg","null","","","","","stream","D","non-repeat","null","54","stimuli/stream_57.jpg","","","","",""
"","null","image-keyboard-response","68","2.0.0","71604","peefa9q8jxy","leopard","stimuli/playground_14.jpg","null","","","","","playground","E","non-repeat","null","55","stimuli/playground_14.jpg","","","","",""
"","null","image-keyboard-response","69","2.0.0","72606","peefa9q8jxy","leopard","stimuli/woods_46.jpg","null","","","","","woods","F","non-repeat","null","56","stimuli/woods_46.jpg","","","","",""
"","null","image-keyboard-response","70","2.0.0","73612","peefa9q8jxy","leopard","stimuli/bar_53.jpg","null","","","","","bar","G","non-repeat","null","57","stimuli/bar_53.jpg","","","","",""
"","null","image-keyboard-response","71","2.0.0","74628","peefa9q8jxy","leopard","stimuli/bathroom_63.jpg","null","","","","","bathroom","H","non-repeat","null","58","stimuli/bathroom_63.jpg","","","","",""
"","null","image-keyboard-response","72","2.0.0","75632","peefa9q8jxy","leopard","stimuli/coast_58.jpg","null","","","","","coast","I","non-repeat","null","59","stimuli/coast_58.jpg","","","","",""
"","null","image-keyboard-response","73","2.0.0","76635","peefa9q8jxy","leopard","stimuli/bridge_55.jpg","null","","","","","bridge","J","non-repeat","null","60","stimuli/bridge_55.jpg","","","","",""
"","null","image-keyboard-response","74","2.0.0","77640","peefa9q8jxy","leopard","stimuli/kitchen_36.jpg","null","","","","","kitchen","K","non-repeat","null","61","stimuli/kitchen_36.jpg","","","","",""
"","null","image-keyboard-response","75","2.0.0","78644","peefa9q8jxy","leopard","stimuli/desert_6.jpg","null","","","","","desert","L","non-repeat","null","62","stimuli/desert_6.jpg","","","","",""
"","null","image-keyboard-response","76","2.0.0","79650","peefa9q8jxy","leopard","stimuli/bar_53.jpg","null","","","","","bar","G","non-repeat","null","63","stimuli/bar_53.jpg","","","","",""
"","null","image-keyboard-response","77","2.0.0","80656","peefa9q8jxy","leopard","stimuli/bathroom_63.jpg","null","","","","","bathroom","H","non-repeat","null","64","stimuli/bathroom_63.jpg","","","","",""
"","null","image-keyboard-response","78","2.0.0","81673","peefa9q8jxy","leopard","stimuli/coast_58.jpg","null","","","","","coast","I","non-repeat","null","65","stimuli/coast_58.jpg","","","","",""
"","null","image-keyboard-response","79","2.0.0","82678","peefa9q8jxy","leopard","stimuli/field_32.jpg","null","","","","","field","A","non-repeat","null","66","stimuli/field_32.jpg","","","","",""
"","null","image-keyboard-response","80","2.0.0","83680","peefa9q8jxy","leopard","stimuli/street_15.jpg","null","","","","","street","B","non-repeat","null","67","stimuli/street_15.jpg","","","","",""
"","null","image-keyboard-response","81","2.0.0","84683","peefa9q8jxy","leopard","stimuli/gym_68.jpg","null","","","","","gym","C","non-repeat","null","68","stimuli/gym_68.jpg","","","","",""
"","755","image-keyboard-response","82","2.0.0","85684","peefa9q8jxy","leopard","stimuli/gym_68.jpg"," ","","","","","gym","C","repeat"," ","68","","","","","",""
"","null","image-keyboard-response","83","2.0.0","86690","peefa9q8jxy","leopard","stimuli/bridge_55.jpg","null","","","","","bridge","J","non-repeat","null","69","stimuli/bridge_55.jpg","","","","",""
"","null","image-keyboard-response","84","2.0.0","87705","peefa9q8jxy","leopard","stimuli/kitchen_36.jpg","null","","","","","kitchen","K","non-repeat","null","70","stimuli/kitchen_36.jpg","","","","",""
"","null","image-keyboard-response","85","2.0.0","88707","peefa9q8jxy","leopard","stimuli/desert_6.jpg","null","","","","","desert","L","non-repeat","null","71","stimuli/desert_6.jpg","","","","",""
"","null","image-keyboard-response","86","2.0.0","89724","peefa9q8jxy","leopard","stimuli/stream_57.jpg","null","","","","","stream","D","non-repeat","null","72","stimuli/stream_57.jpg","","","","",""
"","null","image-keyboard-response","87","2.0.0","90727","peefa9q8jxy","leopard","stimuli/playground_14.jpg","null","","","","","playground","E","non-repeat","null","73","stimuli/playground_14.jpg","","","","",""
"","null","image-keyboard-response","88","2.0.0","91729","peefa9q8jxy","leopard","stimuli/woods_46.jpg","null","","","","","woods","F","non-repeat","null","74","stimuli/woods_46.jpg","","","","",""
"","null","image-keyboard-response","89","2.0.0","92746","peefa9q8jxy","leopard","stimuli/bridge_55.jpg","null","","","","","bridge","J","non-repeat","null","75","stimuli/bridge_55.jpg","","","","",""
"","null","image-keyboard-response","90","2.0.0","93747","peefa9q8jxy","leopard","stimuli/kitchen_36.jpg","null","","","","","kitchen","K","non-repeat","null","76","stimuli/kitchen_36.jpg","","","","",""
"","null","image-keyboard-response","91","2.0.0","94750","peefa9q8jxy","leopard","stimuli/desert_6.jpg","null","","","","","desert","L","non-repeat","null","77","stimuli/desert_6.jpg","","","","",""
"","null","image-keyboard-response","92","2.0.0","95754","peefa9q8jxy","leopard","stimuli/field_32.jpg","null","","","","","field","A","non-repeat","null","78","stimuli/field_32.jpg","","","","",""
"","null","image-keyboard-response","93","2.0.0","96759","peefa9q8jxy","leopard","stimuli/street_15.jpg","null","","","","","street","B","non-repeat","null","79","stimuli/street_15.jpg","","","","",""
"","null","image-keyboard-response","94","2.0.0","97775","peefa9q8jxy","leopard","stimuli/gym_68.jpg","null","","","","","gym","C","non-repeat","null","80","stimuli/gym_68.jpg","","","","",""
"","null","image-keyboard-response","95","2.0.0","98780","peefa9q8jxy","leopard","stimuli/bridge_55.jpg","null","","","","","bridge","J","non-repeat","null","81","stimuli/bridge_55.jpg","","","","",""
"","null","image-keyboard-response","96","2.0.0","99793","peefa9q8jxy","leopard","stimuli/kitchen_36.jpg","null","","","","","kitchen","K","non-repeat","null","82","stimuli/kitchen_36.jpg","","","","",""
"","null","image-keyboard-response","97","2.0.0","100798","peefa9q8jxy","leopard","stimuli/desert_6.jpg","null","","","","","desert","L","non-repeat","null","83","stimuli/desert_6.jpg","","","","",""
"","null","image-keyboard-response","98","2.0.0","101814","peefa9q8jxy","leopard","stimuli/bar_53.jpg","null","","","","","bar","G","non-repeat","null","84","stimuli/bar_53.jpg","","","","",""
"","null","image-keyboard-response","99","2.0.0","102817","peefa9q8jxy","leopard","stimuli/bathroom_63.jpg","null","","","","","bathroom","H","non-repeat","null","85","stimuli/bathroom_63.jpg","","","","",""
"","null","image-keyboard-response","100","2.0.0","103822","peefa9q8jxy","leopard","stimuli/coast_58.jpg","null","","","","","coast","I","non-repeat","null","86","stimuli/coast_58.jpg","","","","",""
"","null","image-keyboard-response","101","2.0.0","104837","peefa9q8jxy","leopard","stimuli/bridge_55.jpg","null","","","","","bridge","J","non-repeat","null","87","stimuli/bridge_55.jpg","","","","",""
"","null","image-keyboard-response","102","2.0.0","105840","peefa9q8jxy","leopard","stimuli/kitchen_36.jpg","null","","","","","kitchen","K","non-repeat","null","88","stimuli/kitchen_36.jpg","","","","",""
"","null","image-keyboard-response","103","2.0.0","106842","peefa9q8jxy","leopard","stimuli/desert_6.jpg","null","","","","","desert","L","non-repeat","null","89","stimuli/desert_6.jpg","","","","",""
"","null","image-keyboard-response","104","2.0.0","107846","peefa9q8jxy","leopard","stimuli/bar_53.jpg","null","","","","","bar","G","non-repeat","null","90","stimuli/bar_53.jpg","","","","",""
"","null","image-keyboard-response","105","2.0.0","108852","peefa9q8jxy","leopard","stimuli/bathroom_63.jpg","null","","","","","bathroom","H","non-repeat","null","91","stimuli/bathroom_63.jpg","","","","",""
"","null","image-keyboard-response","106","2.0.0","109855","peefa9q8jxy","leopard","stimuli/coast_58.jpg","null","","","","","coast","I","non-repeat","null","92","stimuli/coast_58.jpg","","","","",""
"","null","image-keyboard-response","107","2.0.0","110857","peefa9q8jxy","leopard","stimuli/bridge_55.jpg","null","","","","","bridge","J","non-repeat","null","93","stimuli/bridge_55.jpg","","","","",""
"","null","image-keyboard-response","108","2.0.0","111863","peefa9q8jxy","leopard","stimuli/kitchen_36.jpg","null","","","","","kitchen","K","non-repeat","null","94","stimuli/kitchen_36.jpg","","","","",""
"","null","image-keyboard-response","109","2.0.0","112866","peefa9q8jxy","leopard","stimuli/desert_6.jpg","null","","","","","desert","L","non-repeat","null","95","stimuli/desert_6.jpg","","","","",""
"","null","image-keyboard-response","110","2.0.0","113871","peefa9q8jxy","leopard","stimuli/field_32.jpg","null","","","","","field","A","non-repeat","null","96","stimuli/field_32.jpg","","","","",""
"","null","image-keyboard-response","111","2.0.0","114876","peefa9q8jxy","leopard","stimuli/street_15.jpg","null","","","","","street","B","non-repeat","null","97","stimuli/street_15.jpg","","","","",""
"","null","image-keyboard-response","112","2.0.0","115879","peefa9q8jxy","leopard","stimuli/gym_68.jpg","null","","","","","gym","C","non-repeat","null","98","stimuli/gym_68.jpg","","","","",""
"","null","image-keyboard-response","113","2.0.0","116881","peefa9q8jxy","leopard","stimuli/stream_57.jpg","null","","","","","stream","D","non-repeat","null","99","stimuli/stream_57.jpg","","","","",""
"","null","image-keyboard-response","114","2.0.0","117882","peefa9q8jxy","leopard","stimuli/playground_14.jpg","null","","","","","playground","E","non-repeat","null","100","stimuli/playground_14.jpg","","","","",""
"","null","image-keyboard-response","115","2.0.0","118898","peefa9q8jxy","leopard","stimuli/woods_46.jpg","null","","","","","woods","F","non-repeat","null","101","stimuli/woods_46.jpg","","","","",""
"","693","image-keyboard-response","116","2.0.0","119901","peefa9q8jxy","leopard","stimuli/woods_46.jpg"," ","","","","","woods","F","repeat"," ","101","","","","","",""
"","null","image-keyboard-response","117","2.0.0","120902","peefa9q8jxy","leopard","stimuli/bridge_55.jpg","null","","","","","bridge","J","non-repeat","null","102","stimuli/bridge_55.jpg","","","","",""
"","788","image-keyboard-response","118","2.0.0","121903","peefa9q8jxy","leopard","stimuli/bridge_55.jpg"," ","","","","","bridge","J","repeat"," ","102","","","","","",""
"","null","image-keyboard-response","119","2.0.0","122906","peefa9q8jxy","leopard","stimuli/kitchen_36.jpg","null","","","","","kitchen","K","non-repeat","null","103","stimuli/kitchen_36.jpg","","","","",""
"","null","image-keyboard-response","120","2.0.0","123909","peefa9q8jxy","leopard","stimuli/desert_6.jpg","null","","","","","desert","L","non-repeat","null","104","stimuli/desert_6.jpg","","","","",""
"","null","image-keyboard-response","121","2.0.0","124913","peefa9q8jxy","leopard","stimuli/bar_53.jpg","null","","","","","bar","G","non-repeat","null","105","stimuli/bar_53.jpg","","","","",""
"","null","image-keyboard-response","122","2.0.0","125918","peefa9q8jxy","leopard","stimuli/bathroom_63.jpg","null","","","","","bathroom","H","non-repeat","null","106","stimuli/bathroom_63.jpg","","","","",""
"","null","image-keyboard-response","123","2.0.0","126934","peefa9q8jxy","leopard","stimuli/coast_58.jpg","null","","","","","coast","I","non-repeat","null","107","stimuli/coast_58.jpg","","","","",""
"","null","image-keyboard-response","124","2.0.0","127944","peefa9q8jxy","leopard","stimuli/bridge_55.jpg","null","","","","","bridge","J","non-repeat","null","108","stimuli/bridge_55.jpg","","","","",""
"","null","image-keyboard-response","125","2.0.0","128949","peefa9q8jxy","leopard","stimuli/kitchen_36.jpg","null","","","","","kitchen","K","non-repeat","null","109","stimuli/kitchen_36.jpg","","","","",""
"","null","image-keyboard-response","126","2.0.0","129955","peefa9q8jxy","leopard","stimuli/desert_6.jpg","null","","","","","desert","L","non-repeat","null","110","stimuli/desert_6.jpg","","","","",""
"","null","image-keyboard-response","127","2.0.0","130959","peefa9q8jxy","leopard","stimuli/bar_53.jpg","null","","","","","bar","G","non-repeat","null","111","stimuli/bar_53.jpg","","","","",""
"","null","image-keyboard-response","128","2.0.0","131962","peefa9q8jxy","leopard","stimuli/bathroom_63.jpg","null","","","","","bathroom","H","non-repeat","null","112","stimuli/bathroom_63.jpg","","","","",""
"","null","image-keyboard-response","129","2.0.0","132967","peefa9q8jxy","leopard","stimuli/coast_58.jpg","null","","","","","coast","I","non-repeat","null","113","stimuli/coast_58.jpg","","","","",""
"","679","image-keyboard-response","130","2.0.0","133971","peefa9q8jxy","leopard","stimuli/coast_58.jpg"," ","","","","","coast","I","repeat"," ","113","","","","","",""
"","null","image-keyboard-response","131","2.0.0","134974","peefa9q8jxy","leopard","stimuli/field_32.jpg","null","","","","","field","A","non-repeat","null","114","stimuli/field_32.jpg","","","","",""
"","null","image-keyboard-response","132","2.0.0","135977","peefa9q8jxy","leopard","stimuli/street_15.jpg","null","","","","","street","B","non-repeat","null","115","stimuli/street_15.jpg","","","","",""
"","null","image-keyboard-response","133","2.0.0","136979","peefa9q8jxy","leopard","stimuli/gym_68.jpg","null","","","","","gym","C","non-repeat","null","116","stimuli/gym_68.jpg","","","","",""
"","null","image-keyboard-response","134","2.0.0","137986","peefa9q8jxy","leopard","stimuli/stream_57.jpg","null","","","","","stream","D","non-repeat","null","117","stimuli/stream_57.jpg","","","","",""
"","null","image-keyboard-response","135","2.0.0","138991","peefa9q8jxy","leopard","stimuli/playground_14.jpg","null","","","","","playground","E","non-repeat","null","118","stimuli/playground_14.jpg","","","","",""
"","null","image-keyboard-response","136","2.0.0","139994","peefa9q8jxy","leopard","stimuli/woods_46.jpg","null","","","","","woods","F","non-repeat","null","119","stimuli/woods_46.jpg","","","","",""
"","null","image-keyboard-response","137","2.0.0","140996","peefa9q8jxy","leopard","stimuli/bridge_55.jpg","null","","","","","bridge","J","non-repeat","null","120","stimuli/bridge_55.jpg","","","","",""
"","null","image-keyboard-response","138","2.0.0","141999","peefa9q8jxy","leopard","stimuli/kitchen_36.jpg","null","","","","","kitchen","K","non-repeat","null","121","stimuli/kitchen_36.jpg","","","","",""
"","null","image-keyboard-response","139","2.0.0","143003","peefa9q8jxy","leopard","stimuli/desert_6.jpg","null","","","","","desert","L","non-repeat","null","122","stimuli/desert_6.jpg","","","","",""
"","null","image-keyboard-response","140","2.0.0","144006","peefa9q8jxy","leopard","stimuli/field_32.jpg","null","","","","","field","A","non-repeat","null","123","stimuli/field_32.jpg","","","","",""
"","null","image-keyboard-response","141","2.0.0","145009","peefa9q8jxy","leopard","stimuli/street_15.jpg","null","","","","","street","B","non-repeat","null","124","stimuli/street_15.jpg","","","","",""
"","null","image-keyboard-response","142","2.0.0","146026","peefa9q8jxy","leopard","stimuli/gym_68.jpg","null","","","","","gym","C","non-repeat","null","125","stimuli/gym_68.jpg","","","","",""
"","706","image-keyboard-response","143","2.0.0","147041","peefa9q8jxy","leopard","stimuli/gym_68.jpg"," ","","","","","gym","C","repeat"," ","125","","","","","",""
"","null","image-keyboard-response","144","2.0.0","148054","peefa9q8jxy","leopard","stimuli/stream_57.jpg","null","","","","","stream","D","non-repeat","null","126","stimuli/stream_57.jpg","","","","",""
"","null","image-keyboard-response","145","2.0.0","149058","peefa9q8jxy","leopard","stimuli/playground_14.jpg","null","","","","","playground","E","non-repeat","null","127","stimuli/playground_14.jpg","","","","",""
"","null","image-keyboard-response","146","2.0.0","150064","peefa9q8jxy","leopard","stimuli/woods_46.jpg","null","","","","","woods","F","non-repeat","null","128","stimuli/woods_46.jpg","","","","",""
"","null","image-keyboard-response","147","2.0.0","151071","peefa9q8jxy","leopard","stimuli/field_32.jpg","null","","","","","field","A","non-repeat","null","129","stimuli/field_32.jpg","","","","",""
"","null","image-keyboard-response","148","2.0.0","152074","peefa9q8jxy","leopard","stimuli/street_15.jpg","null","","","","","street","B","non-repeat","null","130","stimuli/street_15.jpg","","","","",""
"","null","image-keyboard-response","149","2.0.0","153080","peefa9q8jxy","leopard","stimuli/gym_68.jpg","null","","","","","gym","C","non-repeat","null","131","stimuli/gym_68.jpg","","","","",""
"","null","image-keyboard-response","150","2.0.0","154097","peefa9q8jxy","leopard","stimuli/stream_57.jpg","null","","","","","stream","D","non-repeat","null","132","stimuli/stream_57.jpg","","","","",""
"","null","image-keyboard-response","151","2.0.0","155101","peefa9q8jxy","leopard","stimuli/playground_14.jpg","null","","","","","playground","E","non-repeat","null","133","stimuli/playground_14.jpg","","","","",""
"","null","image-keyboard-response","152","2.0.0","156118","peefa9q8jxy","leopard","stimuli/woods_46.jpg","null","","","","","woods","F","non-repeat","null","134","stimuli/woods_46.jpg","","","","",""
"","648","image-keyboard-response","153","2.0.0","157134","peefa9q8jxy","leopard","stimuli/woods_46.jpg"," ","","","","","woods","F","repeat"," ","134","","","","","",""
"","null","image-keyboard-response","154","2.0.0","158139","peefa9q8jxy","leopard","stimuli/field_32.jpg","null","","","","","field","A","non-repeat","null","135","stimuli/field_32.jpg","","","","",""
"","null","image-keyboard-response","155","2.0.0","159142","peefa9q8jxy","leopard","stimuli/street_15.jpg","null","","","","","street","B","non-repeat","null","136","stimuli/street_15.jpg","","","","",""
"","null","image-keyboard-response","156","2.0.0","160148","peefa9q8jxy","leopard","stimuli/gym_68.jpg","null","","","","","gym","C","non-repeat","null","137","stimuli/gym_68.jpg","","","","",""
"","null","image-keyboard-response","157","2.0.0","161150","peefa9q8jxy","leopard","stimuli/stream_57.jpg","null","","","","","stream","D","non-repeat","null","138","stimuli/stream_57.jpg","","","","",""
"","null","image-keyboard-response","158","2.0.0","162164","peefa9q8jxy","leopard","stimuli/playground_14.jpg","null","","","","","playground","E","non-repeat","null","139","stimuli/playground_14.jpg","","","","",""
"","null","image-keyboard-response","159","2.0.0","163171","peefa9q8jxy","leopard","stimuli/woods_46.jpg","null","","","","","woods","F","non-repeat","null","140","stimuli/woods_46.jpg","","","","",""
"","null","image-keyboard-response","160","2.0.0","164173","peefa9q8jxy","leopard","stimuli/bridge_55.jpg","null","","","","","bridge","J","non-repeat","null","141","stimuli/bridge_55.jpg","","","","",""
"","753","image-keyboard-response","161","2.0.0","165186","peefa9q8jxy","leopard","stimuli/bridge_55.jpg"," ","","","","","bridge","J","repeat"," ","141","","","","","",""
"","null","image-keyboard-response","162","2.0.0","166189","peefa9q8jxy","leopard","stimuli/kitchen_36.jpg","null","","","","","kitchen","K","non-repeat","null","142","stimuli/kitchen_36.jpg","","","","",""
"","null","image-keyboard-response","163","2.0.0","167193","peefa9q8jxy","leopard","stimuli/desert_6.jpg","null","","","","","desert","L","non-repeat","null","143","stimuli/desert_6.jpg","","","","",""
"","null","image-keyboard-response","164","2.0.0","168203","peefa9q8jxy","leopard","stimuli/field_32.jpg","null","","","","","field","A","non-repeat","null","144","stimuli/field_32.jpg","","","","",""
"","703","image-keyboard-response","165","2.0.0","169205","peefa9q8jxy","leopard","stimuli/field_32.jpg"," ","","","","","field","A","repeat"," ","144","","","","","",""
"","null","image-keyboard-response","166","2.0.0","170206","peefa9q8jxy","leopard","stimuli/street_15.jpg","null","","","","","street","B","non-repeat","null","145","stimuli/street_15.jpg","","","","",""
"","null","image-keyboard-response","167","2.0.0","171208","peefa9q8jxy","leopard","stimuli/gym_68.jpg","null","","","","","gym","C","non-repeat","null","146","stimuli/gym_68.jpg","","","","",""
"","601","image-keyboard-response","168","2.0.0","172215","peefa9q8jxy","leopard","stimuli/gym_68.jpg"," ","","","","","gym","C","repeat"," ","146","","","","","",""
"","null","image-keyboard-response","169","2.0.0","173219","peefa9q8jxy","leopard","stimuli/bridge_55.jpg","null","","","","","bridge","J","non-repeat","null","147","stimuli/bridge_55.jpg","","","","",""
"","null","image-keyboard-response","170","2.0.0","174222","peefa9q8jxy","leopard","stimuli/kitchen_36.jpg","null","","","","","kitchen","K","non-repeat","null","148","stimuli/kitchen_36.jpg","","","","",""
"","null","image-keyboard-response","171","2.0.0","175237","peefa9q8jxy","leopard","stimuli/desert_6.jpg","null","","","","","desert","L","non-repeat","null","149","stimuli/desert_6.jpg","","","","",""
"","null","image-keyboard-response","172","2.0.0","176244","peefa9q8jxy","leopard","stimuli/stream_57.jpg","null","","","","","stream","D","non-repeat","null","150","stimuli/stream_57.jpg","","","","",""
"","null","image-keyboard-response","173","2.0.0","177248","peefa9q8jxy","leopard","stimuli/playground_14.jpg","null","","","","","playground","E","non-repeat","null","151","stimuli/playground_14.jpg","","","","",""
"","null","image-keyboard-response","174","2.0.0","178257","peefa9q8jxy","leopard","stimuli/woods_46.jpg","null","","","","","woods","F","non-repeat","null","152","stimuli/woods_46.jpg","","","","",""
"","null","image-keyboard-response","175","2.0.0","179260","peefa9q8jxy","leopard","stimuli/field_32.jpg","null","","","","","field","A","non-repeat","null","153","stimuli/field_32.jpg","","","","",""
"","null","image-keyboard-response","176","2.0.0","180266","peefa9q8jxy","leopard","stimuli/street_15.jpg","null","","","","","street","B","non-repeat","null","154","stimuli/street_15.jpg","","","","",""
"","null","image-keyboard-response","177","2.0.0","181270","peefa9q8jxy","leopard","stimuli/gym_68.jpg","null","","","","","gym","C","non-repeat","null","155","stimuli/gym_68.jpg","","","","",""
"","null","image-keyboard-response","178","2.0.0","182277","peefa9q8jxy","leopard","stimuli/bar_53.jpg","null","","","","","bar","G","non-repeat","null","156","stimuli/bar_53.jpg","","","","",""
"","null","image-keyboard-response","179","2.0.0","183284","peefa9q8jxy","leopard","stimuli/bathroom_63.jpg","null","","","","","bathroom","H","non-repeat","null","157","stimuli/bathroom_63.jpg","","","","",""
"","null","image-keyboard-response","180","2.0.0","184289","peefa9q8jxy","leopard","stimuli/coast_58.jpg","null","","","","","coast","I","non-repeat","null","158","stimuli/coast_58.jpg","","","","",""
"","null","image-keyboard-response","181","2.0.0","185293","peefa9q8jxy","leopard","stimuli/coast_58.jpg","null","","","","","coast","I","repeat"," ","158","","","","","",""
"","null","image-keyboard-response","182","2.0.0","186297","peefa9q8jxy","leopard","stimuli/bridge_55.jpg","null","","","","","bridge","J","non-repeat","null","159","stimuli/bridge_55.jpg","","","","",""
"","null","image-keyboard-response","183","2.0.0","187301","peefa9q8jxy","leopard","stimuli/kitchen_36.jpg","null","","","","","kitchen","K","non-repeat","null","160","stimuli/kitchen_36.jpg","","","","",""
"","null","image-keyboard-response","184","2.0.0","188304","peefa9q8jxy","leopard","stimuli/desert_6.jpg","null","","","","","desert","L","non-repeat","null","161","stimuli/desert_6.jpg","","","","",""
"","749","image-keyboard-response","185","2.0.0","189320","peefa9q8jxy","leopard","stimuli/desert_6.jpg"," ","","","","","desert","L","repeat"," ","161","","","","","",""
"","null","image-keyboard-response","186","2.0.0","190334","peefa9q8jxy","leopard","stimuli/bar_53.jpg","null","","","","","bar","G","non-repeat","null","162","stimuli/bar_53.jpg","","","","",""
"","null","image-keyboard-response","187","2.0.0","191341","peefa9q8jxy","leopard","stimuli/bathroom_63.jpg","null","","","","","bathroom","H","non-repeat","null","163","stimuli/bathroom_63.jpg","","","","",""
"","null","image-keyboard-response","188","2.0.0","192345","peefa9q8jxy","leopard","stimuli/coast_58.jpg","null","","","","","coast","I","non-repeat","null","164","stimuli/coast_58.jpg","","","","",""
"","null","image-keyboard-response","189","2.0.0","193347","peefa9q8jxy","leopard","stimuli/field_32.jpg","null","","","","","field","A","non-repeat","null","165","stimuli/field_32.jpg","","","","",""
"","575","image-keyboard-response","190","2.0.0","194352","peefa9q8jxy","leopard","stimuli/field_32.jpg"," ","","","","","field","A","repeat"," ","165","","","","","",""
"","null","image-keyboard-response","191","2.0.0","195356","peefa9q8jxy","leopard","stimuli/street_15.jpg","null","","","","","street","B","non-repeat","null","166","stimuli/street_15.jpg","","","","",""
"","null","image-keyboard-response","192","2.0.0","196362","peefa9q8jxy","leopard","stimuli/gym_68.jpg","null","","","","","gym","C","non-repeat","null","167","stimuli/gym_68.jpg","","","","",""
"","null","image-keyboard-response","193","2.0.0","197364","peefa9q8jxy","leopard","stimuli/stream_57.jpg","null","","","","","stream","D","non-repeat","null","168","stimuli/stream_57.jpg","","","","",""
"","null","image-keyboard-response","194","2.0.0","198367","peefa9q8jxy","leopard","stimuli/playground_14.jpg","null","","","","","playground","E","non-repeat","null","169","stimuli/playground_14.jpg","","","","",""
"","null","image-keyboard-response","195","2.0.0","199374","peefa9q8jxy","leopard","stimuli/woods_46.jpg","null","","","","","woods","F","non-repeat","null","170","stimuli/woods_46.jpg","","","","",""
"","null","image-keyboard-response","196","2.0.0","200381","peefa9q8jxy","leopard","stimuli/bar_53.jpg","null","","","","","bar","G","non-repeat","null","171","stimuli/bar_53.jpg","","","","",""
"","null","image-keyboard-response","197","2.0.0","201386","peefa9q8jxy","leopard","stimuli/bathroom_63.jpg","null","","","","","bathroom","H","non-repeat","null","172","stimuli/bathroom_63.jpg","","","","",""
"","null","image-keyboard-response","198","2.0.0","202392","peefa9q8jxy","leopard","stimuli/coast_58.jpg","null","","","","","coast","I","non-repeat","null","173","stimuli/coast_58.jpg","","","","",""
"","null","image-keyboard-response","199","2.0.0","203395","peefa9q8jxy","leopard","stimuli/stream_57.jpg","null","","","","","stream","D","non-repeat","null","174","stimuli/stream_57.jpg","","","","",""
"","null","image-keyboard-response","200","2.0.0","204398","peefa9q8jxy","leopard","stimuli/playground_14.jpg","null","","","","","playground","E","non-repeat","null","175","stimuli/playground_14.jpg","","","","",""
"","null","image-keyboard-response","201","2.0.0","205403","peefa9q8jxy","leopard","stimuli/woods_46.jpg","null","","","","","woods","F","non-repeat","null","176","stimuli/woods_46.jpg","","","","",""
"","null","image-keyboard-response","202","2.0.0","206418","peefa9q8jxy","leopard","stimuli/field_32.jpg","null","","","","","field","A","non-repeat","null","177","stimuli/field_32.jpg","","","","",""
"","823","image-keyboard-response","203","2.0.0","207422","peefa9q8jxy","leopard","stimuli/field_32.jpg"," ","","","","","field","A","repeat"," ","177","","","","","",""
"","null","image-keyboard-response","204","2.0.0","208426","peefa9q8jxy","leopard","stimuli/street_15.jpg","null","","","","","street","B","non-repeat","null","178","stimuli/street_15.jpg","","","","",""
"","null","image-keyboard-response","205","2.0.0","209440","peefa9q8jxy","leopard","stimuli/gym_68.jpg","null","","","","","gym","C","non-repeat","null","179","stimuli/gym_68.jpg","","","","",""
"","null","image-keyboard-response","206","2.0.0","210443","peefa9q8jxy","leopard","stimuli/bridge_55.jpg","null","","","","","bridge","J","non-repeat","null","180","stimuli/bridge_55.jpg","","","","",""
"","null","image-keyboard-response","207","2.0.0","211459","peefa9q8jxy","leopard","stimuli/kitchen_36.jpg","null","","","","","kitchen","K","non-repeat","null","181","stimuli/kitchen_36.jpg","","","","",""
"","null","image-keyboard-response","208","2.0.0","212475","peefa9q8jxy","leopard","stimuli/desert_6.jpg","null","","","","","desert","L","non-repeat","null","182","stimuli/desert_6.jpg","","","","",""
"","709","image-keyboard-response","209","2.0.0","213477","peefa9q8jxy","leopard","stimuli/desert_6.jpg"," ","","","","","desert","L","repeat"," ","182","","","","","",""
"","null","image-keyboard-response","210","2.0.0","214493","peefa9q8jxy","leopard","stimuli/bar_53.jpg","null","","","","","bar","G","non-repeat","null","183","stimuli/bar_53.jpg","","","","",""
"","null","image-keyboard-response","211","2.0.0","215496","peefa9q8jxy","leopard","stimuli/bathroom_63.jpg","null","","","","","bathroom","H","non-repeat","null","184","stimuli/bathroom_63.jpg","","","","",""
"","null","image-keyboard-response","212","2.0.0","216499","peefa9q8jxy","leopard","stimuli/coast_58.jpg","null","","","","","coast","I","non-repeat","null","185","stimuli/coast_58.jpg","","","","",""
"","null","image-keyboard-response","213","2.0.0","217513","peefa9q8jxy","leopard","stimuli/field_32.jpg","null","","","","","field","A","non-repeat","null","186","stimuli/field_32.jpg","","","","",""
"","null","image-keyboard-response","214","2.0.0","218518","peefa9q8jxy","leopard","stimuli/street_15.jpg","null","","","","","street","B","non-repeat","null","187","stimuli/street_15.jpg","","","","",""
"","null","image-keyboard-response","215","2.0.0","219523","peefa9q8jxy","leopard","stimuli/gym_68.jpg","null","","","","","gym","C","non-repeat","null","188","stimuli/gym_68.jpg","","","","",""
"","null","image-keyboard-response","216","2.0.0","220527","peefa9q8jxy","leopard","stimuli/bridge_55.jpg","null","","","","","bridge","J","non-repeat","null","189","stimuli/bridge_55.jpg","","","","",""
"","null","image-keyboard-response","217","2.0.0","221529","peefa9q8jxy","leopard","stimuli/kitchen_36.jpg","null","","","","","kitchen","K","non-repeat","null","190","stimuli/kitchen_36.jpg","","","","",""
"","null","image-keyboard-response","218","2.0.0","222535","peefa9q8jxy","leopard","stimuli/desert_6.jpg","null","","","","","desert","L","non-repeat","null","191","stimuli/desert_6.jpg","","","","",""
"","null","image-keyboard-response","219","2.0.0","223538","peefa9q8jxy","leopard","stimuli/bar_53.jpg","null","","","","","bar","G","non-repeat","null","192","stimuli/bar_53.jpg","","","","",""
"","null","image-keyboard-response","220","2.0.0","224541","peefa9q8jxy","leopard","stimuli/bathroom_63.jpg","null","","","","","bathroom","H","non-repeat","null","193","stimuli/bathroom_63.jpg","","","","",""
"","null","image-keyboard-response","221","2.0.0","225555","peefa9q8jxy","leopard","stimuli/coast_58.jpg","null","","","","","coast","I","non-repeat","null","194","stimuli/coast_58.jpg","","","","",""
"","null","image-keyboard-response","222","2.0.0","226558","peefa9q8jxy","leopard","stimuli/field_32.jpg","null","","","","","field","A","non-repeat","null","195","stimuli/field_32.jpg","","","","",""
"","null","image-keyboard-response","223","2.0.0","227568","peefa9q8jxy","leopard","stimuli/street_15.jpg","null","","","","","street","B","non-repeat","null","196","stimuli/street_15.jpg","","","","",""
"","null","image-keyboard-response","224","2.0.0","228571","peefa9q8jxy","leopard","stimuli/gym_68.jpg","null","","","","","gym","C","non-repeat","null","197","stimuli/gym_68.jpg","","","","",""
"","null","image-keyboard-response","225","2.0.0","229573","peefa9q8jxy","leopard","stimuli/stream_57.jpg","null","","","","","stream","D","non-repeat","null","198","stimuli/stream_57.jpg","","","","",""
"","null","image-keyboard-response","226","2.0.0","230578","peefa9q8jxy","leopard","stimuli/playground_14.jpg","null","","","","","playground","E","non-repeat","null","199","stimuli/playground_14.jpg","","","","",""
"","null","image-keyboard-response","227","2.0.0","231595","peefa9q8jxy","leopard","stimuli/woods_46.jpg","null","","","","","woods","F","non-repeat","null","200","stimuli/woods_46.jpg","","","","",""
"","null","image-keyboard-response","228","2.0.0","232598","peefa9q8jxy","leopard","stimuli/bridge_55.jpg","null","","","","","bridge","J","non-repeat","null","201","stimuli/bridge_55.jpg","","","","",""
"","null","image-keyboard-response","229","2.0.0","233615","peefa9q8jxy","leopard","stimuli/kitchen_36.jpg","null","","","","","kitchen","K","non-repeat","null","202","stimuli/kitchen_36.jpg","","","","",""
"","null","image-keyboard-response","230","2.0.0","234618","peefa9q8jxy","leopard","stimuli/desert_6.jpg","null","","","","","desert","L","non-repeat","null","203","stimuli/desert_6.jpg","","","","",""
"","null","image-keyboard-response","231","2.0.0","235622","peefa9q8jxy","leopard","stimuli/field_32.jpg","null","","","","","field","A","non-repeat","null","204","stimuli/field_32.jpg","","","","",""
"","null","image-keyboard-response","232","2.0.0","236626","peefa9q8jxy","leopard","stimuli/street_15.jpg","null","","","","","street","B","non-repeat","null","205","stimuli/street_15.jpg","","","","",""
"","null","image-keyboard-response","233","2.0.0","237631","peefa9q8jxy","leopard","stimuli/gym_68.jpg","null","","","","","gym","C","non-repeat","null","206","stimuli/gym_68.jpg","","","","",""
"","null","image-keyboard-response","234","2.0.0","238635","peefa9q8jxy","leopard","stimuli/bridge_55.jpg","null","","","","","bridge","J","non-repeat","null","207","stimuli/bridge_55.jpg","","","","",""
"","null","image-keyboard-response","235","2.0.0","239641","peefa9q8jxy","leopard","stimuli/kitchen_36.jpg","null","","","","","kitchen","K","non-repeat","null","208","stimuli/kitchen_36.jpg","","","","",""
"","null","image-keyboard-response","236","2.0.0","240643","peefa9q8jxy","leopard","stimuli/desert_6.jpg","null","","","","","desert","L","non-repeat","null","209","stimuli/desert_6.jpg","","","","",""
"","null","image-keyboard-response","237","2.0.0","241652","peefa9q8jxy","leopard","stimuli/field_32.jpg","null","","","","","field","A","non-repeat","null","210","stimuli/field_32.jpg","","","","",""
"","null","image-keyboard-response","238","2.0.0","242663","peefa9q8jxy","leopard","stimuli/street_15.jpg","null","","","","","street","B","non-repeat","null","211","stimuli/street_15.jpg","","","","",""
"","null","image-keyboard-response","239","2.0.0","243668","peefa9q8jxy","leopard","stimuli/gym_68.jpg","null","","","","","gym","C","non-repeat","null","212","stimuli/gym_68.jpg","","","","",""
"","null","image-keyboard-response","240","2.0.0","244672","peefa9q8jxy","leopard","stimuli/bar_53.jpg","null","","","","","bar","G","non-repeat","null","213","stimuli/bar_53.jpg","","","","",""
"","602","image-keyboard-response","241","2.0.0","245675","peefa9q8jxy","leopard","stimuli/bar_53.jpg"," ","","","","","bar","G","repeat"," ","213","","","","","",""
"","null","image-keyboard-response","242","2.0.0","246678","peefa9q8jxy","leopard","stimuli/bathroom_63.jpg","null","","","","","bathroom","H","non-repeat","null","214","stimuli/bathroom_63.jpg","","","","",""
"","null","image-keyboard-response","243","2.0.0","247680","peefa9q8jxy","leopard","stimuli/coast_58.jpg","null","","","","","coast","I","non-repeat","null","215","stimuli/coast_58.jpg","","","","",""
"","715","image-keyboard-response","244","2.0.0","248685","peefa9q8jxy","leopard","stimuli/coast_58.jpg"," ","","","","","coast","I","repeat"," ","215","","","","","",""
"","null","image-keyboard-response","245","2.0.0","249699","peefa9q8jxy","leopard","stimuli/field_32.jpg","null","","","","","field","A","non-repeat","null","216","stimuli/field_32.jpg","","","","",""
"","687","image-keyboard-response","246","2.0.0","250716","peefa9q8jxy","leopard","stimuli/field_32.jpg"," ","","","","","field","A","repeat"," ","216","","","","","",""
"","null","image-keyboard-response","247","2.0.0","251726","peefa9q8jxy","leopard","stimuli/street_15.jpg","null","","","","","street","B","non-repeat","null","217","stimuli/street_15.jpg","","","","",""
"","null","image-keyboard-response","248","2.0.0","252736","peefa9q8jxy","leopard","stimuli/gym_68.jpg","null","","","","","gym","C","non-repeat","null","218","stimuli/gym_68.jpg","","","","",""
"","null","image-keyboard-response","249","2.0.0","253751","peefa9q8jxy","leopard","stimuli/bar_53.jpg","null","","","","","bar","G","non-repeat","null","219","stimuli/bar_53.jpg","","","","",""
"","null","image-keyboard-response","250","2.0.0","254756","peefa9q8jxy","leopard","stimuli/bathroom_63.jpg","null","","","","","bathroom","H","non-repeat","null","220","stimuli/bathroom_63.jpg","","","","",""
"","null","image-keyboard-response","251","2.0.0","255758","peefa9q8jxy","leopard","stimuli/coast_58.jpg","null","","","","","coast","I","non-repeat","null","221","stimuli/coast_58.jpg","","","","",""
"","null","image-keyboard-response","252","2.0.0","256759","peefa9q8jxy","leopard","stimuli/field_32.jpg","null","","","","","field","A","non-repeat","null","222","stimuli/field_32.jpg","","","","",""
"","null","image-keyboard-response","253","2.0.0","257776","peefa9q8jxy","leopard","stimuli/street_15.jpg","null","","","","","street","B","non-repeat","null","223","stimuli/street_15.jpg","","","","",""
"","null","image-keyboard-response","254","2.0.0","258781","peefa9q8jxy","leopard","stimuli/gym_68.jpg","null","","","","","gym","C","non-repeat","null","224","stimuli/gym_68.jpg","","","","",""
"","null","image-keyboard-response","255","2.0.0","259786","peefa9q8jxy","leopard","stimuli/bar_53.jpg","null","","","","","bar","G","non-repeat","null","225","stimuli/bar_53.jpg","","","","",""
"","null","image-keyboard-response","256","2.0.0","260791","peefa9q8jxy","leopard","stimuli/bathroom_63.jpg","null","","","","","bathroom","H","non-repeat","null","226","stimuli/bathroom_63.jpg","","","","",""
"","null","image-keyboard-response","257","2.0.0","261793","peefa9q8jxy","leopard","stimuli/coast_58.jpg","null","","","","","coast","I","non-repeat","null","227","stimuli/coast_58.jpg","","","","",""
"","null","image-keyboard-response","258","2.0.0","262796","peefa9q8jxy","leopard","stimuli/stream_57.jpg","null","","","","","stream","D","non-repeat","null","228","stimuli/stream_57.jpg","","","","",""
"","null","image-keyboard-response","259","2.0.0","263797","peefa9q8jxy","leopard","stimuli/playground_14.jpg","null","","","","","playground","E","non-repeat","null","229","stimuli/playground_14.jpg","","","","",""
"","null","image-keyboard-response","260","2.0.0","264801","peefa9q8jxy","leopard","stimuli/woods_46.jpg","null","","","","","woods","F","non-repeat","null","230","stimuli/woods_46.jpg","","","","",""
"","null","image-keyboard-response","261","2.0.0","265817","peefa9q8jxy","leopard","stimuli/field_32.jpg","null","","","","","field","A","non-repeat","null","231","stimuli/field_32.jpg","","","","",""
"","null","image-keyboard-response","262","2.0.0","266822","peefa9q8jxy","leopard","stimuli/street_15.jpg","null","","","","","street","B","non-repeat","null","232","stimuli/street_15.jpg","","","","",""
"","null","image-keyboard-response","263","2.0.0","267833","peefa9q8jxy","leopard","stimuli/gym_68.jpg","null","","","","","gym","C","non-repeat","null","233","stimuli/gym_68.jpg","","","","",""
"","null","image-keyboard-response","264","2.0.0","268848","peefa9q8jxy","leopard","stimuli/bar_53.jpg","null","","","","","bar","G","non-repeat","null","234","stimuli/bar_53.jpg","","","","",""
"","null","image-keyboard-response","265","2.0.0","269852","peefa9q8jxy","leopard","stimuli/bathroom_63.jpg","null","","","","","bathroom","H","non-repeat","null","235","stimuli/bathroom_63.jpg","","","","",""
"","null","image-keyboard-response","266","2.0.0","270869","peefa9q8jxy","leopard","stimuli/coast_58.jpg","null","","","","","coast","I","non-repeat","null","236","stimuli/coast_58.jpg","","","","",""
"","null","image-keyboard-response","267","2.0.0","271873","peefa9q8jxy","leopard","stimuli/bridge_55.jpg","null","","","","","bridge","J","non-repeat","null","237","stimuli/bridge_55.jpg","","","","",""
"","null","image-keyboard-response","268","2.0.0","272881","peefa9q8jxy","leopard","stimuli/kitchen_36.jpg","null","","","","","kitchen","K","non-repeat","null","238","stimuli/kitchen_36.jpg","","","","",""
"","null","image-keyboard-response","269","2.0.0","273883","peefa9q8jxy","leopard","stimuli/desert_6.jpg","null","","","","","desert","L","non-repeat","null","239","stimuli/desert_6.jpg","","","","",""
"","null","image-keyboard-response","270","2.0.0","274888","peefa9q8jxy","leopard","stimuli/bar_53.jpg","null","","","","","bar","G","non-repeat","null","240","stimuli/bar_53.jpg","","","","",""
"","null","image-keyboard-response","271","2.0.0","275894","peefa9q8jxy","leopard","stimuli/bathroom_63.jpg","null","","","","","bathroom","H","non-repeat","null","241","stimuli/bathroom_63.jpg","","","","",""
"","null","image-keyboard-response","272","2.0.0","276897","peefa9q8jxy","leopard","stimuli/coast_58.jpg","null","","","","","coast","I","non-repeat","null","242","stimuli/coast_58.jpg","","","","",""
"","null","image-keyboard-response","273","2.0.0","277899","peefa9q8jxy","leopard","stimuli/bridge_55.jpg","null","","","","","bridge","J","non-repeat","null","243","stimuli/bridge_55.jpg","","","","",""
"","null","image-keyboard-response","274","2.0.0","278903","peefa9q8jxy","leopard","stimuli/kitchen_36.jpg","null","","","","","kitchen","K","non-repeat","null","244","stimuli/kitchen_36.jpg","","","","",""
"","null","image-keyboard-response","275","2.0.0","279906","peefa9q8jxy","leopard","stimuli/desert_6.jpg","null","","","","","desert","L","non-repeat","null","245","stimuli/desert_6.jpg","","","","",""
"","null","image-keyboard-response","276","2.0.0","280909","peefa9q8jxy","leopard","stimuli/bar_53.jpg","null","","","","","bar","G","non-repeat","null","246","stimuli/bar_53.jpg","","","","",""
"","null","image-keyboard-response","277","2.0.0","281913","peefa9q8jxy","leopard","stimuli/bathroom_63.jpg","null","","","","","bathroom","H","non-repeat","null","247","stimuli/bathroom_63.jpg","","","","",""
"","null","image-keyboard-response","278","2.0.0","282917","peefa9q8jxy","leopard","stimuli/coast_58.jpg","null","","","","","coast","I","non-repeat","null","248","stimuli/coast_58.jpg","","","","",""
"","null","image-keyboard-response","279","2.0.0","283919","peefa9q8jxy","leopard","stimuli/bridge_55.jpg","null","","","","","bridge","J","non-repeat","null","249","stimuli/bridge_55.jpg","","","","",""
"","439","image-keyboard-response","280","2.0.0","284923","peefa9q8jxy","leopard","stimuli/bridge_55.jpg"," ","","","","","bridge","J","repeat"," ","249","","","","","",""
"","null","image-keyboard-response","281","2.0.0","285925","peefa9q8jxy","leopard","stimuli/kitchen_36.jpg","null","","","","","kitchen","K","non-repeat","null","250","stimuli/kitchen_36.jpg","","","","",""
"","null","image-keyboard-response","282","2.0.0","286928","peefa9q8jxy","leopard","stimuli/desert_6.jpg","null","","","","","desert","L","non-repeat","null","251","stimuli/desert_6.jpg","","","","",""
"","null","image-keyboard-response","283","2.0.0","287930","peefa9q8jxy","leopard","stimuli/field_32.jpg","null","","","","","field","A","non-repeat","null","252","stimuli/field_32.jpg","","","","",""
"","null","image-keyboard-response","284","2.0.0","288935","peefa9q8jxy","leopard","stimuli/street_15.jpg","null","","","","","street","B","non-repeat","null","253","stimuli/street_15.jpg","","","","",""
"","null","image-keyboard-response","285","2.0.0","289940","peefa9q8jxy","leopard","stimuli/gym_68.jpg","null","","","","","gym","C","non-repeat","null","254","stimuli/gym_68.jpg","","","","",""
"","null","image-keyboard-response","286","2.0.0","290945","peefa9q8jxy","leopard","stimuli/stream_57.jpg","null","","","","","stream","D","non-repeat","null","255","stimuli/stream_57.jpg","","","","",""
"","693","image-keyboard-response","287","2.0.0","291962","peefa9q8jxy","leopard","stimuli/stream_57.jpg"," ","","","","","stream","D","repeat"," ","255","","","","","",""
"","null","image-keyboard-response","288","2.0.0","292967","peefa9q8jxy","leopard","stimuli/playground_14.jpg","null","","","","","playground","E","non-repeat","null","256","stimuli/playground_14.jpg","","","","",""
"","null","image-keyboard-response","289","2.0.0","293975","peefa9q8jxy","leopard","stimuli/woods_46.jpg","null","","","","","woods","F","non-repeat","null","257","stimuli/woods_46.jpg","","","","",""
"","null","image-keyboard-response","290","2.0.0","294990","peefa9q8jxy","leopard","stimuli/field_32.jpg","null","","","","","field","A","non-repeat","null","258","stimuli/field_32.jpg","","","","",""
"","null","image-keyboard-response","291","2.0.0","295992","peefa9q8jxy","leopard","stimuli/street_15.jpg","null","","","","","street","B","non-repeat","null","259","stimuli/street_15.jpg","","","","",""
"","null","image-keyboard-response","292","2.0.0","296996","peefa9q8jxy","leopard","stimuli/gym_68.jpg","null","","","","","gym","C","non-repeat","null","260","stimuli/gym_68.jpg","","","","",""
"","null","image-keyboard-response","293","2.0.0","297999","peefa9q8jxy","leopard","stimuli/bar_53.jpg","null","","","","","bar","G","non-repeat","null","261","stimuli/bar_53.jpg","","","","",""
"","757","image-keyboard-response","294","2.0.0","299002","peefa9q8jxy","leopard","stimuli/bar_53.jpg"," ","","","","","bar","G","repeat"," ","261","","","","","",""
"","null","image-keyboard-response","295","2.0.0","300013","peefa9q8jxy","leopard","stimuli/bathroom_63.jpg","null","","","","","bathroom","H","non-repeat","null","262","stimuli/bathroom_63.jpg","","","","",""
"","null","image-keyboard-response","296","2.0.0","301017","peefa9q8jxy","leopard","stimuli/coast_58.jpg","null","","","","","coast","I","non-repeat","null","263","stimuli/coast_58.jpg","","","","",""
"","null","image-keyboard-response","297","2.0.0","302034","peefa9q8jxy","leopard","stimuli/field_32.jpg","null","","","","","field","A","non-repeat","null","264","stimuli/field_32.jpg","","","","",""
"","null","image-keyboard-response","298","2.0.0","303036","peefa9q8jxy","leopard","stimuli/street_15.jpg","null","","","","","street","B","non-repeat","null","265","stimuli/street_15.jpg","","","","",""
"","null","image-keyboard-response","299","2.0.0","304039","peefa9q8jxy","leopard","stimuli/gym_68.jpg","null","","","","","gym","C","non-repeat","null","266","stimuli/gym_68.jpg","","","","",""
"","null","image-keyboard-response","300","2.0.0","305056","peefa9q8jxy","leopard","stimuli/stream_57.jpg","null","","","","","stream","D","non-repeat","null","267","stimuli/stream_57.jpg","","","","",""
"","723","image-keyboard-response","301","2.0.0","306058","peefa9q8jxy","leopard","stimuli/stream_57.jpg"," ","","","","","stream","D","repeat"," ","267","","","","","",""
"","null","image-keyboard-response","302","2.0.0","307063","peefa9q8jxy","leopard","stimuli/playground_14.jpg","null","","","","","playground","E","non-repeat","null","268","stimuli/playground_14.jpg","","","","",""
"","null","image-keyboard-response","303","2.0.0","308065","peefa9q8jxy","leopard","stimuli/woods_46.jpg","null","","","","","woods","F","non-repeat","null","269","stimuli/woods_46.jpg","","","","",""
"","null","image-keyboard-response","304","2.0.0","309067","peefa9q8jxy","leopard","stimuli/bar_53.jpg","null","","","","","bar","G","non-repeat","null","270","stimuli/bar_53.jpg","","","","",""
"","null","image-keyboard-response","305","2.0.0","310070","peefa9q8jxy","leopard","stimuli/bar_53.jpg","null","","","","","bar","G","repeat"," ","270","","","","","",""
"","null","image-keyboard-response","306","2.0.0","311073","peefa9q8jxy","leopard","stimuli/bathroom_63.jpg","null","","","","","bathroom","H","non-repeat","null","271","stimuli/bathroom_63.jpg","","","","",""
"","null","image-keyboard-response","307","2.0.0","312088","peefa9q8jxy","leopard","stimuli/coast_58.jpg","null","","","","","coast","I","non-repeat","null","272","stimuli/coast_58.jpg","","","","",""
"","null","image-keyboard-response","308","2.0.0","313093","peefa9q8jxy","leopard","stimuli/stream_57.jpg","null","","","","","stream","D","non-repeat","null","273","stimuli/stream_57.jpg","","","","",""
"","null","image-keyboard-response","309","2.0.0","314099","peefa9q8jxy","leopard","stimuli/stream_57.jpg","null","","","","","stream","D","repeat"," ","273","","","","","",""
"","null","image-keyboard-response","310","2.0.0","315104","peefa9q8jxy","leopard","stimuli/playground_14.jpg","null","","","","","playground","E","non-repeat","null","274","stimuli/playground_14.jpg","","","","",""
"","null","image-keyboard-response","311","2.0.0","316116","peefa9q8jxy","leopard","stimuli/woods_46.jpg","null","","","","","woods","F","non-repeat","null","275","stimuli/woods_46.jpg","","","","",""
"","null","image-keyboard-response","312","2.0.0","317119","peefa9q8jxy","leopard","stimuli/bridge_55.jpg","null","","","","","bridge","J","non-repeat","null","276","stimuli/bridge_55.jpg","","","","",""
"","null","image-keyboard-response","313","2.0.0","318122","peefa9q8jxy","leopard","stimuli/kitchen_36.jpg","null","","","","","kitchen","K","non-repeat","null","277","stimuli/kitchen_36.jpg","","","","",""
"","null","image-keyboard-response","314","2.0.0","319126","peefa9q8jxy","leopard","stimuli/desert_6.jpg","null","","","","","desert","L","non-repeat","null","278","stimuli/desert_6.jpg","","","","",""
"","365","image-keyboard-response","315","2.0.0","320129","peefa9q8jxy","leopard","stimuli/desert_6.jpg"," ","","","","","desert","L","repeat"," ","278","","","","","",""
"","null","image-keyboard-response","316","2.0.0","321135","peefa9q8jxy","leopard","stimuli/field_32.jpg","null","","","","","field","A","non-repeat","null","279","stimuli/field_32.jpg","","","","",""
"","null","image-keyboard-response","317","2.0.0","322136","peefa9q8jxy","leopard","stimuli/street_15.jpg","null","","","","","street","B","non-repeat","null","280","stimuli/street_15.jpg","","","","",""
"","null","image-keyboard-response","318","2.0.0","323141","peefa9q8jxy","leopard","stimuli/gym_68.jpg","null","","","","","gym","C","non-repeat","null","281","stimuli/gym_68.jpg","","","","",""
"","null","image-keyboard-response","319","2.0.0","324144","peefa9q8jxy","leopard","stimuli/bridge_55.jpg","null","","","","","bridge","J","non-repeat","null","282","stimuli/bridge_55.jpg","","","","",""
"","null","image-keyboard-response","320","2.0.0","325148","peefa9q8jxy","leopard","stimuli/kitchen_36.jpg","null","","","","","kitchen","K","non-repeat","null","283","stimuli/kitchen_36.jpg","","","","",""
"","null","image-keyboard-response","321","2.0.0","326151","peefa9q8jxy","leopard","stimuli/desert_6.jpg","null","","","","","desert","L","non-repeat","null","284","stimuli/desert_6.jpg","","","","",""
"","null","image-keyboard-response","322","2.0.0","327154","peefa9q8jxy","leopard","stimuli/stream_57.jpg","null","","","","","stream","D","non-repeat","null","285","stimuli/stream_57.jpg","","","","",""
"","null","image-keyboard-response","323","2.0.0","328158","peefa9q8jxy","leopard","stimuli/playground_14.jpg","null","","","","","playground","E","non-repeat","null","286","stimuli/playground_14.jpg","","","","",""
"","null","image-keyboard-response","324","2.0.0","329172","peefa9q8jxy","leopard","stimuli/woods_46.jpg","null","","","","","woods","F","non-repeat","null","287","stimuli/woods_46.jpg","","","","",""
"","null","image-keyboard-response","325","2.0.0","330173","peefa9q8jxy","leopard","stimuli/woods_46.jpg","null","","","","","woods","F","repeat"," ","287","","","","","",""
"","26","image-keyboard-response","326","2.0.0","331176","peefa9q8jxy","leopard","stimuli/bridge_55.jpg"," ","","","","","bridge","J","non-repeat","null","288","stimuli/bridge_55.jpg","","","","",""
"","null","image-keyboard-response","327","2.0.0","332180","peefa9q8jxy","leopard","stimuli/bridge_55.jpg","null","","","","","bridge","J","repeat"," ","288","","","","","",""
"","null","image-keyboard-response","328","2.0.0","333183","peefa9q8jxy","leopard","stimuli/kitchen_36.jpg","null","","","","","kitchen","K","non-repeat","null","289","stimuli/kitchen_36.jpg","","","","",""
"","null","image-keyboard-response","329","2.0.0","334184","peefa9q8jxy","leopard","stimuli/desert_6.jpg","null","","","","","desert","L","non-repeat","null","290","stimuli/desert_6.jpg","","","","",""
"","534","image-keyboard-response","330","2.0.0","335188","peefa9q8jxy","leopard","stimuli/desert_6.jpg"," ","","","","","desert","L","repeat"," ","290","","","","","",""
"","null","image-keyboard-response","331","2.0.0","336192","peefa9q8jxy","leopard","stimuli/bar_53.jpg","null","","","","","bar","G","non-repeat","null","291","stimuli/bar_53.jpg","","","","",""
"","null","image-keyboard-response","332","2.0.0","337197","peefa9q8jxy","leopard","stimuli/bathroom_63.jpg","null","","","","","bathroom","H","non-repeat","null","292","stimuli/bathroom_63.jpg","","","","",""
"","null","image-keyboard-response","333","2.0.0","338200","peefa9q8jxy","leopard","stimuli/coast_58.jpg","null","","","","","coast","I","non-repeat","null","293","stimuli/coast_58.jpg","","","","",""
"","null","image-keyboard-response","334","2.0.0","339205","peefa9q8jxy","leopard","stimuli/field_32.jpg","null","","","","","field","A","non-repeat","null","294","stimuli/field_32.jpg","","","","",""
"","null","image-keyboard-response","335","2.0.0","340210","peefa9q8jxy","leopard","stimuli/street_15.jpg","null","","","","","street","B","non-repeat","null","295","stimuli/street_15.jpg","","","","",""
"","null","image-keyboard-response","336","2.0.0","341215","peefa9q8jxy","leopard","stimuli/gym_68.jpg","null","","","","","gym","C","non-repeat","null","296","stimuli/gym_68.jpg","","","","",""
"","784","image-keyboard-response","337","2.0.0","342221","peefa9q8jxy","leopard","stimuli/gym_68.jpg"," ","","","","","gym","C","repeat"," ","296","","","","","",""
"","null","image-keyboard-response","338","2.0.0","343234","peefa9q8jxy","leopard","stimuli/stream_57.jpg","null","","","","","stream","D","non-repeat","null","297","stimuli/stream_57.jpg","","","","",""
"","null","image-keyboard-response","339","2.0.0","344238","peefa9q8jxy","leopard","stimuli/playground_14.jpg","null","","","","","playground","E","non-repeat","null","298","stimuli/playground_14.jpg","","","","",""
"","null","image-keyboard-response","340","2.0.0","345243","peefa9q8jxy","leopard","stimuli/woods_46.jpg","null","","","","","woods","F","non-repeat","null","299","stimuli/woods_46.jpg","","","","",""
"","null","image-keyboard-response","341","2.0.0","346246","peefa9q8jxy","leopard","stimuli/field_32.jpg","null","","","","","field","A","non-repeat","null","300","stimuli/field_32.jpg","","","","",""
"","null","image-keyboard-response","342","2.0.0","347250","peefa9q8jxy","leopard","stimuli/street_15.jpg","null","","","","","street","B","non-repeat","null","301","stimuli/street_15.jpg","","","","",""
"","null","image-keyboard-response","343","2.0.0","348253","peefa9q8jxy","leopard","stimuli/gym_68.jpg","null","","","","","gym","C","non-repeat","null","302","stimuli/gym_68.jpg","","","","",""
"","589","image-keyboard-response","344","2.0.0","349254","peefa9q8jxy","leopard","stimuli/gym_68.jpg"," ","","","","","gym","C","repeat"," ","302","","","","","",""
"","null","image-keyboard-response","345","2.0.0","350261","peefa9q8jxy","leopard","stimuli/bridge_55.jpg","null","","","","","bridge","J","non-repeat","null","303","stimuli/bridge_55.jpg","","","","",""
"","null","image-keyboard-response","346","2.0.0","351263","peefa9q8jxy","leopard","stimuli/kitchen_36.jpg","null","","","","","kitchen","K","non-repeat","null","304","stimuli/kitchen_36.jpg","","","","",""
"","null","image-keyboard-response","347","2.0.0","352269","peefa9q8jxy","leopard","stimuli/desert_6.jpg","null","","","","","desert","L","non-repeat","null","305","stimuli/desert_6.jpg","","","","",""
"","585","image-keyboard-response","348","2.0.0","353273","peefa9q8jxy","leopard","stimuli/desert_6.jpg"," ","","","","","desert","L","repeat"," ","305","","","","","",""
"","null","image-keyboard-response","349","2.0.0","354277","peefa9q8jxy","leopard","stimuli/stream_57.jpg","null","","","","","stream","D","non-repeat","null","306","stimuli/stream_57.jpg","","","","",""
"","null","image-keyboard-response","350","2.0.0","355279","peefa9q8jxy","leopard","stimuli/playground_14.jpg","null","","","","","playground","E","non-repeat","null","307","stimuli/playground_14.jpg","","","","",""
"","null","image-keyboard-response","351","2.0.0","356280","peefa9q8jxy","leopard","stimuli/woods_46.jpg","null","","","","","woods","F","non-repeat","null","308","stimuli/woods_46.jpg","","","","",""
"","null","image-keyboard-response","352","2.0.0","357282","peefa9q8jxy","leopard","stimuli/bridge_55.jpg","null","","","","","bridge","J","non-repeat","null","309","stimuli/bridge_55.jpg","","","","",""
"","735","image-keyboard-response","353","2.0.0","358286","peefa9q8jxy","leopard","stimuli/bridge_55.jpg"," ","","","","","bridge","J","repeat"," ","309","","","","","",""
"","null","image-keyboard-response","354","2.0.0","359301","peefa9q8jxy","leopard","stimuli/kitchen_36.jpg","null","","","","","kitchen","K","non-repeat","null","310","stimuli/kitchen_36.jpg","","","","",""
"","null","image-keyboard-response","355","2.0.0","360306","peefa9q8jxy","leopard","stimuli/desert_6.jpg","null","","","","","desert","L","non-repeat","null","311","stimuli/desert_6.jpg","","","","",""
"","null","image-keyboard-response","356","2.0.0","361310","peefa9q8jxy","leopard","stimuli/bar_53.jpg","null","","","","","bar","G","non-repeat","null","312","stimuli/bar_53.jpg","","","","",""
"","null","image-keyboard-response","357","2.0.0","362311","peefa9q8jxy","leopard","stimuli/bathroom_63.jpg","null","","","","","bathroom","H","non-repeat","null","313","stimuli/bathroom_63.jpg","","","","",""
"","null","image-keyboard-response","358","2.0.0","363315","peefa9q8jxy","leopard","stimuli/coast_58.jpg","null","","","","","coast","I","non-repeat","null","314","stimuli/coast_58.jpg","","","","",""
"","null","image-keyboard-response","359","2.0.0","364318","peefa9q8jxy","leopard","stimuli/field_32.jpg","null","","","","","field","A","non-repeat","null","315","stimuli/field_32.jpg","","","","",""
"","null","image-keyboard-response","360","2.0.0","365334","peefa9q8jxy","leopard","stimuli/street_15.jpg","null","","","","","street","B","non-repeat","null","316","stimuli/street_15.jpg","","","","",""
"","null","image-keyboard-response","361","2.0.0","366343","peefa9q8jxy","leopard","stimuli/gym_68.jpg","null","","","","","gym","C","non-repeat","null","317","stimuli/gym_68.jpg","","","","",""
"","null","image-keyboard-response","362","2.0.0","367346","peefa9q8jxy","leopard","stimuli/stream_57.jpg","null","","","","","stream","D","non-repeat","null","318","stimuli/stream_57.jpg","","","","",""
"","null","image-keyboard-response","363","2.0.0","368351","peefa9q8jxy","leopard","stimuli/playground_14.jpg","null","","","","","playground","E","non-repeat","null","319","stimuli/playground_14.jpg","","","","",""
"","null","image-keyboard-response","364","2.0.0","369358","peefa9q8jxy","leopard","stimuli/woods_46.jpg","null","","","","","woods","F","non-repeat","null","320","stimuli/woods_46.jpg","","","","",""
"","599","image-keyboard-response","365","2.0.0","370363","peefa9q8jxy","leopard","stimuli/woods_46.jpg"," ","","","","","woods","F","repeat"," ","320","","","","","",""
"","null","image-keyboard-response","366","2.0.0","371379","peefa9q8jxy","leopard","stimuli/bridge_55.jpg","null","","","","","bridge","J","non-repeat","null","321","stimuli/bridge_55.jpg","","","","",""
"","null","image-keyboard-response","367","2.0.0","372395","peefa9q8jxy","leopard","stimuli/kitchen_36.jpg","null","","","","","kitchen","K","non-repeat","null","322","stimuli/kitchen_36.jpg","","","","",""
"","null","image-keyboard-response","368","2.0.0","373399","peefa9q8jxy","leopard","stimuli/desert_6.jpg","null","","","","","desert","L","non-repeat","null","323","stimuli/desert_6.jpg","","","","",""
"","null","image-keyboard-response","369","2.0.0","374414","peefa9q8jxy","leopard","stimuli/bar_53.jpg","null","","","","","bar","G","non-repeat","null","324","stimuli/bar_53.jpg","","","","",""
"","null","image-keyboard-response","370","2.0.0","375415","peefa9q8jxy","leopard","stimuli/bathroom_63.jpg","null","","","","","bathroom","H","non-repeat","null","325","stimuli/bathroom_63.jpg","","","","",""
"","null","image-keyboard-response","371","2.0.0","376416","peefa9q8jxy","leopard","stimuli/coast_58.jpg","null","","","","","coast","I","non-repeat","null","326","stimuli/coast_58.jpg","","","","",""
"","null","image-keyboard-response","372","2.0.0","377425","peefa9q8jxy","leopard","stimuli/coast_58.jpg","null","","","","","coast","I","repeat"," ","326","","","","","",""
"","null","image-keyboard-response","373","2.0.0","378428","peefa9q8jxy","leopard","stimuli/field_32.jpg","null","","","","","field","A","non-repeat","null","327","stimuli/field_32.jpg","","","","",""
"","null","image-keyboard-response","374","2.0.0","379432","peefa9q8jxy","leopard","stimuli/street_15.jpg","null","","","","","street","B","non-repeat","null","328","stimuli/street_15.jpg","","","","",""
"","null","image-keyboard-response","375","2.0.0","380437","peefa9q8jxy","leopard","stimuli/gym_68.jpg","null","","","","","gym","C","non-repeat","null","329","stimuli/gym_68.jpg","","","","",""
"","null","image-keyboard-response","376","2.0.0","381451","peefa9q8jxy","leopard","stimuli/stream_57.jpg","null","","","","","stream","D","non-repeat","null","330","stimuli/stream_57.jpg","","","","",""
"","615","image-keyboard-response","377","2.0.0","382455","peefa9q8jxy","leopard","stimuli/stream_57.jpg"," ","","","","","stream","D","repeat"," ","330","","","","","",""
"","null","image-keyboard-response","378","2.0.0","383457","peefa9q8jxy","leopard","stimuli/playground_14.jpg","null","","","","","playground","E","non-repeat","null","331","stimuli/playground_14.jpg","","","","",""
"","null","image-keyboard-response","379","2.0.0","384463","peefa9q8jxy","leopard","stimuli/woods_46.jpg","null","","","","","woods","F","non-repeat","null","332","stimuli/woods_46.jpg","","","","",""
"","null","image-keyboard-response","380","2.0.0","385469","peefa9q8jxy","leopard","stimuli/field_32.jpg","null","","","","","field","A","non-repeat","null","333","stimuli/field_32.jpg","","","","",""
"","null","image-keyboard-response","381","2.0.0","386470","peefa9q8jxy","leopard","stimuli/street_15.jpg","null","","","","","street","B","non-repeat","null","334","stimuli/street_15.jpg","","","","",""
"","null","image-keyboard-response","382","2.0.0","387476","peefa9q8jxy","leopard","stimuli/gym_68.jpg","null","","","","","gym","C","non-repeat","null","335","stimuli/gym_68.jpg","","","","",""
"","null","image-keyboard-response","383","2.0.0","388479","peefa9q8jxy","leopard","stimuli/stream_57.jpg","null","","","","","stream","D","non-repeat","null","336","stimuli/stream_57.jpg","","","","",""
"","733","image-keyboard-response","384","2.0.0","389487","peefa9q8jxy","leopard","stimuli/stream_57.jpg"," ","","","","","stream","D","repeat"," ","336","","","","","",""
"","null","image-keyboard-response","385","2.0.0","390489","peefa9q8jxy","leopard","stimuli/playground_14.jpg","null","","","","","playground","E","non-repeat","null","337","stimuli/playground_14.jpg","","","","",""
"","null","image-keyboard-response","386","2.0.0","391491","peefa9q8jxy","leopard","stimuli/woods_46.jpg","null","","","","","woods","F","non-repeat","null","338","stimuli/woods_46.jpg","","","","",""
"","null","image-keyboard-response","387","2.0.0","392504","peefa9q8jxy","leopard","stimuli/bar_53.jpg","null","","","","","bar","G","non-repeat","null","339","stimuli/bar_53.jpg","","","","",""
"","null","image-keyboard-response","388","2.0.0","393520","peefa9q8jxy","leopard","stimuli/bathroom_63.jpg","null","","","","","bathroom","H","non-repeat","null","340","stimuli/bathroom_63.jpg","","","","",""
"","null","image-keyboard-response","389","2.0.0","394523","peefa9q8jxy","leopard","stimuli/coast_58.jpg","null","","","","","coast","I","non-repeat","null","341","stimuli/coast_58.jpg","","","","",""
"","null","image-keyboard-response","390","2.0.0","395528","peefa9q8jxy","leopard","stimuli/field_32.jpg","null","","","","","field","A","non-repeat","null","342","stimuli/field_32.jpg","","","","",""
"","null","image-keyboard-response","391","2.0.0","396529","peefa9q8jxy","leopard","stimuli/street_15.jpg","null","","","","","street","B","non-repeat","null","343","stimuli/street_15.jpg","","","","",""
"","null","image-keyboard-response","392","2.0.0","397536","peefa9q8jxy","leopard","stimuli/gym_68.jpg","null","","","","","gym","C","non-repeat","null","344","stimuli/gym_68.jpg","","","","",""
"","null","image-keyboard-response","393","2.0.0","398540","peefa9q8jxy","leopard","stimuli/stream_57.jpg","null","","","","","stream","D","non-repeat","null","345","stimuli/stream_57.jpg","","","","",""
"","null","image-keyboard-response","394","2.0.0","399542","peefa9q8jxy","leopard","stimuli/playground_14.jpg","null","","","","","playground","E","non-repeat","null","346","stimuli/playground_14.jpg","","","","",""
"","null","image-keyboard-response","395","2.0.0","400544","peefa9q8jxy","leopard","stimuli/woods_46.jpg","null","","","","","woods","F","non-repeat","null","347","stimuli/woods_46.jpg","","","","",""
"","null","image-keyboard-response","396","2.0.0","401545","peefa9q8jxy","leopard","stimuli/bar_53.jpg","null","","","","","bar","G","non-repeat","null","348","stimuli/bar_53.jpg","","","","",""
"","561","image-keyboard-response","397","2.0.0","402560","peefa9q8jxy","leopard","stimuli/bar_53.jpg"," ","","","","","bar","G","repeat"," ","348","","","","","",""
"","null","image-keyboard-response","398","2.0.0","403565","peefa9q8jxy","leopard","stimuli/bathroom_63.jpg","null","","","","","bathroom","H","non-repeat","null","349","stimuli/bathroom_63.jpg","","","","",""
"","null","image-keyboard-response","399","2.0.0","404567","peefa9q8jxy","leopard","stimuli/coast_58.jpg","null","","","","","coast","I","non-repeat","null","350","stimuli/coast_58.jpg","","","","",""
"","903","image-keyboard-response","400","2.0.0","405577","peefa9q8jxy","leopard","stimuli/coast_58.jpg"," ","","","","","coast","I","repeat"," ","350","","","","","",""
"","null","image-keyboard-response","401","2.0.0","406584","peefa9q8jxy","leopard","stimuli/bridge_55.jpg","null","","","","","bridge","J","non-repeat","null","351","stimuli/bridge_55.jpg","","","","",""
"","null","image-keyboard-response","402","2.0.0","407588","peefa9q8jxy","leopard","stimuli/kitchen_36.jpg","null","","","","","kitchen","K","non-repeat","null","352","stimuli/kitchen_36.jpg","","","","",""
"","null","image-keyboard-response","403","2.0.0","408602","peefa9q8jxy","leopard","stimuli/desert_6.jpg","null","","","","","desert","L","non-repeat","null","353","stimuli/desert_6.jpg","","","","",""
"","null","image-keyboard-response","404","2.0.0","409606","peefa9q8jxy","leopard","stimuli/stream_57.jpg","null","","","","","stream","D","non-repeat","null","354","stimuli/stream_57.jpg","","","","",""
"","null","image-keyboard-response","405","2.0.0","410608","peefa9q8jxy","leopard","stimuli/playground_14.jpg","null","","","","","playground","E","non-repeat","null","355","stimuli/playground_14.jpg","","","","",""
"","null","image-keyboard-response","406","2.0.0","411612","peefa9q8jxy","leopard","stimuli/woods_46.jpg","null","","","","","woods","F","non-repeat","null","356","stimuli/woods_46.jpg","","","","",""
"","397","image-keyboard-response","407","2.0.0","412615","peefa9q8jxy","leopard","stimuli/woods_46.jpg"," ","","","","","woods","F","repeat"," ","356","","","","","",""
"","null","image-keyboard-response","408","2.0.0","413619","peefa9q8jxy","leopard","stimuli/bar_53.jpg","null","","","","","bar","G","non-repeat","null","357","stimuli/bar_53.jpg","","","","",""
"","null","image-keyboard-response","409","2.0.0","414622","peefa9q8jxy","leopard","stimuli/bar_53.jpg","null","","","","","bar","G","repeat"," ","357","","","","","",""
"","20","image-keyboard-response","410","2.0.0","415630","peefa9q8jxy","leopard","stimuli/bathroom_63.jpg"," ","","","","","bathroom","H","non-repeat","null","358","stimuli/bathroom_63.jpg","","","","",""
"","null","image-keyboard-response","411","2.0.0","416632","peefa9q8jxy","leopard","stimuli/coast_58.jpg","null","","","","","coast","I","non-repeat","null","359","stimuli/coast_58.jpg","","","","",""
"","658","image-keyboard-response","412","2.0.0","417636","peefa9q8jxy","leopard","stimuli/coast_58.jpg"," ","","","","","coast","I","repeat"," ","359","","","","","",""
"","null","image-keyboard-response","413","2.0.0","418639","peefa9q8jxy","leopard","stimuli/bridge_55.jpg","null","","","","","bridge","J","non-repeat","null","360","stimuli/bridge_55.jpg","","","","",""
"","null","image-keyboard-response","414","2.0.0","419642","peefa9q8jxy","leopard","stimuli/kitchen_36.jpg","null","","","","","kitchen","K","non-repeat","null","361","stimuli/kitchen_36.jpg","","","","",""
"","null","image-keyboard-response","415","2.0.0","420645","peefa9q8jxy","leopard","stimuli/desert_6.jpg","null","","","","","desert","L","non-repeat","null","362","stimuli/desert_6.jpg","","","","",""
"","null","image-keyboard-response","416","2.0.0","421651","peefa9q8jxy","leopard","stimuli/bar_53.jpg","null","","","","","bar","G","non-repeat","null","363","stimuli/bar_53.jpg","","","","",""
"","null","image-keyboard-response","417","2.0.0","422655","peefa9q8jxy","leopard","stimuli/bathroom_63.jpg","null","","","","","bathroom","H","non-repeat","null","364","stimuli/bathroom_63.jpg","","","","",""
"","null","image-keyboard-response","418","2.0.0","423661","peefa9q8jxy","leopard","stimuli/coast_58.jpg","null","","","","","coast","I","non-repeat","null","365","stimuli/coast_58.jpg","","","","",""
"","null","image-keyboard-response","419","2.0.0","424664","peefa9q8jxy","leopard","stimuli/stream_57.jpg","null","","","","","stream","D","non-repeat","null","366","stimuli/stream_57.jpg","","","","",""
"","null","image-keyboard-response","420","2.0.0","425671","peefa9q8jxy","leopard","stimuli/playground_14.jpg","null","","","","","playground","E","non-repeat","null","367","stimuli/playground_14.jpg","","","","",""
"","null","image-keyboard-response","421","2.0.0","426672","peefa9q8jxy","leopard","stimuli/woods_46.jpg","null","","","","","woods","F","non-repeat","null","368","stimuli/woods_46.jpg","","","","",""
"","null","image-keyboard-response","422","2.0.0","427676","peefa9q8jxy","leopard","stimuli/bridge_55.jpg","null","","","","","bridge","J","non-repeat","null","369","stimuli/bridge_55.jpg","","","","",""
"","null","image-keyboard-response","423","2.0.0","428678","peefa9q8jxy","leopard","stimuli/kitchen_36.jpg","null","","","","","kitchen","K","non-repeat","null","370","stimuli/kitchen_36.jpg","","","","",""
"","null","image-keyboard-response","424","2.0.0","429680","peefa9q8jxy","leopard","stimuli/desert_6.jpg","null","","","","","desert","L","non-repeat","null","371","stimuli/desert_6.jpg","","","","",""
"","null","image-keyboard-response","425","2.0.0","430684","peefa9q8jxy","leopard","stimuli/bar_53.jpg","null","","","","","bar","G","non-repeat","null","372","stimuli/bar_53.jpg","","","","",""
"","null","image-keyboard-response","426","2.0.0","431688","peefa9q8jxy","leopard","stimuli/bathroom_63.jpg","null","","","","","bathroom","H","non-repeat","null","373","stimuli/bathroom_63.jpg","","","","",""
"","null","image-keyboard-response","427","2.0.0","432705","peefa9q8jxy","leopard","stimuli/coast_58.jpg","null","","","","","coast","I","non-repeat","null","374","stimuli/coast_58.jpg","","","","",""
"","null","image-keyboard-response","428","2.0.0","433707","peefa9q8jxy","leopard","stimuli/bridge_55.jpg","null","","","","","bridge","J","non-repeat","null","375","stimuli/bridge_55.jpg","","","","",""
"","423","image-keyboard-response","429","2.0.0","434715","peefa9q8jxy","leopard","stimuli/bridge_55.jpg"," ","","","","","bridge","J","repeat"," ","375","","","","","",""
"","null","image-keyboard-response","430","2.0.0","435730","peefa9q8jxy","leopard","stimuli/kitchen_36.jpg","null","","","","","kitchen","K","non-repeat","null","376","stimuli/kitchen_36.jpg","","","","",""
"","null","image-keyboard-response","431","2.0.0","436741","peefa9q8jxy","leopard","stimuli/desert_6.jpg","null","","","","","desert","L","non-repeat","null","377","stimuli/desert_6.jpg","","","","",""
"","null","image-keyboard-response","432","2.0.0","437746","peefa9q8jxy","leopard","stimuli/stream_57.jpg","null","","","","","stream","D","non-repeat","null","378","stimuli/stream_57.jpg","","","","",""
"","null","image-keyboard-response","433","2.0.0","438752","peefa9q8jxy","leopard","stimuli/playground_14.jpg","null","","","","","playground","E","non-repeat","null","379","stimuli/playground_14.jpg","","","","",""
"","null","image-keyboard-response","434","2.0.0","439756","peefa9q8jxy","leopard","stimuli/woods_46.jpg","null","","","","","woods","F","non-repeat","null","380","stimuli/woods_46.jpg","","","","",""
"","271","image-keyboard-response","435","2.0.0","440760","peefa9q8jxy","leopard","stimuli/woods_46.jpg"," ","","","","","woods","F","repeat"," ","380","","","","","",""
"","null","image-keyboard-response","436","2.0.0","441765","peefa9q8jxy","leopard","stimuli/field_32.jpg","null","","","","","field","A","non-repeat","null","381","stimuli/field_32.jpg","","","","",""
"","null","image-keyboard-response","437","2.0.0","442769","peefa9q8jxy","leopard","stimuli/street_15.jpg","null","","","","","street","B","non-repeat","null","382","stimuli/street_15.jpg","","","","",""
"","null","image-keyboard-response","438","2.0.0","443776","peefa9q8jxy","leopard","stimuli/gym_68.jpg","null","","","","","gym","C","non-repeat","null","383","stimuli/gym_68.jpg","","","","",""
"","null","image-keyboard-response","439","2.0.0","444778","peefa9q8jxy","leopard","stimuli/bar_53.jpg","null","","","","","bar","G","non-repeat","null","384","stimuli/bar_53.jpg","","","","",""
"","618","image-keyboard-response","440","2.0.0","445794","peefa9q8jxy","leopard","stimuli/bar_53.jpg"," ","","","","","bar","G","repeat"," ","384","","","","","",""
"","null","image-keyboard-response","441","2.0.0","446797","peefa9q8jxy","leopard","stimuli/bathroom_63.jpg","null","","","","","bathroom","H","non-repeat","null","385","stimuli/bathroom_63.jpg","","","","",""
"","null","image-keyboard-response","442","2.0.0","447802","peefa9q8jxy","leopard","stimuli/coast_58.jpg","null","","","","","coast","I","non-repeat","null","386","stimuli/coast_58.jpg","","","","",""
"","null","image-keyboard-response","443","2.0.0","448807","peefa9q8jxy","leopard","stimuli/bridge_55.jpg","null","","","","","bridge","J","non-repeat","null","387","stimuli/bridge_55.jpg","","","","",""
"","null","image-keyboard-response","444","2.0.0","449820","peefa9q8jxy","leopard","stimuli/kitchen_36.jpg","null","","","","","kitchen","K","non-repeat","null","388","stimuli/kitchen_36.jpg","","","","",""
"","null","image-keyboard-response","445","2.0.0","450823","peefa9q8jxy","leopard","stimuli/desert_6.jpg","null","","","","","desert","L","non-repeat","null","389","stimuli/desert_6.jpg","","","","",""
"","null","image-keyboard-response","446","2.0.0","451825","peefa9q8jxy","leopard","stimuli/bar_53.jpg","null","","","","","bar","G","non-repeat","null","390","stimuli/bar_53.jpg","","","","",""
"","null","image-keyboard-response","447","2.0.0","452829","peefa9q8jxy","leopard","stimuli/bathroom_63.jpg","null","","","","","bathroom","H","non-repeat","null","391","stimuli/bathroom_63.jpg","","","","",""
"","null","image-keyboard-response","448","2.0.0","453833","peefa9q8jxy","leopard","stimuli/coast_58.jpg","null","","","","","coast","I","non-repeat","null","392","stimuli/coast_58.jpg","","","","",""
"","null","image-keyboard-response","449","2.0.0","454837","peefa9q8jxy","leopard","stimuli/coast_58.jpg","null","","","","","coast","I","repeat"," ","392","","","","","",""
"","null","image-keyboard-response","450","2.0.0","455841","peefa9q8jxy","leopard","stimuli/bridge_55.jpg","null","","","","","bridge","J","non-repeat","null","393","stimuli/bridge_55.jpg","","","","",""
"","null","image-keyboard-response","451","2.0.0","456847","peefa9q8jxy","leopard","stimuli/kitchen_36.jpg","null","","","","","kitchen","K","non-repeat","null","394","stimuli/kitchen_36.jpg","","","","",""
"","null","image-keyboard-response","452","2.0.0","457850","peefa9q8jxy","leopard","stimuli/desert_6.jpg","null","","","","","desert","L","non-repeat","null","395","stimuli/desert_6.jpg","","","","",""
"","null","image-keyboard-response","453","2.0.0","458852","peefa9q8jxy","leopard","stimuli/field_32.jpg","null","","","","","field","A","non-repeat","null","396","stimuli/field_32.jpg","","","","",""
"","null","image-keyboard-response","454","2.0.0","459859","peefa9q8jxy","leopard","stimuli/street_15.jpg","null","","","","","street","B","non-repeat","null","397","stimuli/street_15.jpg","","","","",""
"","null","image-keyboard-response","455","2.0.0","460861","peefa9q8jxy","leopard","stimuli/gym_68.jpg","null","","","","","gym","C","non-repeat","null","398","stimuli/gym_68.jpg","","","","",""
"","348","image-keyboard-response","456","2.0.0","461877","peefa9q8jxy","leopard","stimuli/gym_68.jpg"," ","","","","","gym","C","repeat"," ","398","","","","","",""
"","null","image-keyboard-response","457","2.0.0","462878","peefa9q8jxy","leopard","stimuli/bar_53.jpg","null","","","","","bar","G","non-repeat","null","399","stimuli/bar_53.jpg","","","","",""
"","241","image-keyboard-response","458","2.0.0","463890","peefa9q8jxy","leopard","stimuli/bathroom_63.jpg"," ","","","","","bathroom","H","non-repeat","null","400","stimuli/bathroom_63.jpg","","","","",""
"","null","image-keyboard-response","459","2.0.0","464896","peefa9q8jxy","leopard","stimuli/coast_58.jpg","null","","","","","coast","I","non-repeat","null","401","stimuli/coast_58.jpg","","","","",""
"","null","image-keyboard-response","460","2.0.0","465897","peefa9q8jxy","leopard","stimuli/field_32.jpg","null","","","","","field","A","non-repeat","null","402","stimuli/field_32.jpg","","","","",""
"","null","image-keyboard-response","461","2.0.0","466899","peefa9q8jxy","leopard","stimuli/street_15.jpg","null","","","","","street","B","non-repeat","null","403","stimuli/street_15.jpg","","","","",""
"","null","image-keyboard-response","462","2.0.0","467903","peefa9q8jxy","leopard","stimuli/gym_68.jpg","null","","","","","gym","C","non-repeat","null","404","stimuli/gym_68.jpg","","","","",""
"","null","image-keyboard-response","463","2.0.0","468906","peefa9q8jxy","leopard","stimuli/bar_53.jpg","null","","","","","bar","G","non-repeat","null","405","stimuli/bar_53.jpg","","","","",""
"","null","image-keyboard-response","464","2.0.0","469911","peefa9q8jxy","leopard","stimuli/bathroom_63.jpg","null","","","","","bathroom","H","non-repeat","null","406","stimuli/bathroom_63.jpg","","","","",""
"","null","image-keyboard-response","465","2.0.0","470922","peefa9q8jxy","leopard","stimuli/coast_58.jpg","null","","","","","coast","I","non-repeat","null","407","stimuli/coast_58.jpg","","","","",""
"","null","image-keyboard-response","466","2.0.0","471937","peefa9q8jxy","leopard","stimuli/field_32.jpg","null","","","","","field","A","non-repeat","null","408","stimuli/field_32.jpg","","","","",""
"","null","image-keyboard-response","467","2.0.0","472940","peefa9q8jxy","leopard","stimuli/street_15.jpg","null","","","","","street","B","non-repeat","null","409","stimuli/street_15.jpg","","","","",""
"","null","image-keyboard-response","468","2.0.0","473943","peefa9q8jxy","leopard","stimuli/gym_68.jpg","null","","","","","gym","C","non-repeat","null","410","stimuli/gym_68.jpg","","","","",""
"","null","image-keyboard-response","469","2.0.0","474948","peefa9q8jxy","leopard","stimuli/stream_57.jpg","null","","","","","stream","D","non-repeat","null","411","stimuli/stream_57.jpg","","","","",""
"","null","image-keyboard-response","470","2.0.0","475953","peefa9q8jxy","leopard","stimuli/playground_14.jpg","null","","","","","playground","E","non-repeat","null","412","stimuli/playground_14.jpg","","","","",""
"","null","image-keyboard-response","471","2.0.0","476958","peefa9q8jxy","leopard","stimuli/woods_46.jpg","null","","","","","woods","F","non-repeat","null","413","stimuli/woods_46.jpg","","","","",""
"","308","image-keyboard-response","472","2.0.0","477964","peefa9q8jxy","leopard","stimuli/woods_46.jpg"," ","","","","","woods","F","repeat"," ","413","","","","","",""
"","56509","html-keyboard-response","473","2.0.0","534474","peefa9q8jxy","leopard","
    <p>For this trial, you will see a sequneces of images.</p>
    <p>Press 1 or 2 if the first or second sequence felt familiar..</p>
    <p>Press any key to begin.</p>","d","","","","","","","","","","","","","","",""
"","null","html-keyboard-response","474","2.0.0","535475","peefa9q8jxy","leopard","<p>Sequence 1</p>","null","","","","","","","","","","","","","","",""
"","null","image-keyboard-response","475","2.0.0","536479","peefa9q8jxy","leopard","stimuli/field_32.jpg","null","","","","","","","","","","","","","","",""
"","null","image-keyboard-response","476","2.0.0","537484","peefa9q8jxy","leopard","stimuli/playground_14.jpg","null","","","","","","","","","","","","","","",""
"","null","image-keyboard-response","477","2.0.0","538487","peefa9q8jxy","leopard","stimuli/coast_58.jpg","null","","","","","","","","","","","","","","",""
"","null","html-keyboard-response","478","2.0.0","539489","peefa9q8jxy","leopard","<p></p>","null","","","","","","","","","","","","","","",""
"","null","html-keyboard-response","479","2.0.0","540497","peefa9q8jxy","leopard","<p>Sequence 2</p>","null","","","","","","","","","","","","","","",""
"","null","image-keyboard-response","480","2.0.0","541503","peefa9q8jxy","leopard","stimuli/field_32.jpg","null","","","","","","","","","","","","","","",""
"","null","image-keyboard-response","481","2.0.0","542506","peefa9q8jxy","leopard","stimuli/street_15.jpg","null","","","","","","","","","","","","","","",""
"","null","image-keyboard-response","482","2.0.0","543515","peefa9q8jxy","leopard","stimuli/gym_68.jpg","null","","","","","","","","","","","","","","",""
"","2916","html-keyboard-response","483","2.0.0","546432","peefa9q8jxy","leopard","<p>Press '1' if the first sequence was familiar, '2' if the second was.</p>","1","","","","","","","2","","","","[""A"",""B"",""C""]","[""A"",""E"",""I""]","false","[""<p>Sequence 1</p>"",""stimuli/field_32.jpg"",""stimuli/playground_14.jpg"",""stimuli/coast_58.jpg""]","[""<p>Sequence 2</p>"",""stimuli/field_32.jpg"",""stimuli/street_15.jpg"",""stimuli/gym_68.jpg""]"
"","null","html-keyboard-response","484","2.0.0","547439","peefa9q8jxy","leopard","<p>Sequence 1</p>","null","","","","","","","","","","","","","","",""
"","null","image-keyboard-response","485","2.0.0","548444","peefa9q8jxy","leopard","stimuli/field_32.jpg","null","","","","","","","","","","","","","","",""
"","null","image-keyboard-response","486","2.0.0","549449","peefa9q8jxy","leopard","stimuli/street_15.jpg","null","","","","","","","","","","","","","","",""
"","null","image-keyboard-response","487","2.0.0","550454","peefa9q8jxy","leopard","stimuli/gym_68.jpg","null","","","","","","","","","","","","","","",""
"","null","html-keyboard-response","488","2.0.0","551456","peefa9q8jxy","leopard","<p></p>","null","","","","","","","","","","","","","","",""
"","null","html-keyboard-response","489","2.0.0","552459","peefa9q8jxy","leopard","<p>Sequence 2</p>","null","","","","","","","","","","","","","","",""
"","null","image-keyboard-response","490","2.0.0","553471","peefa9q8jxy","leopard","stimuli/stream_57.jpg","null","","","","","","","","","","","","","","",""
"","null","image-keyboard-response","491","2.0.0","554473","peefa9q8jxy","leopard","stimuli/bathroom_63.jpg","null","","","","","","","","","","","","","","",""
"","null","image-keyboard-response","492","2.0.0","555478","peefa9q8jxy","leopard","stimuli/desert_6.jpg","null","","","","","","","","","","","","","","",""
"","3490","html-keyboard-response","493","2.0.0","558969","peefa9q8jxy","leopard","<p>Press '1' if the first sequence was familiar, '2' if the second was.</p>","1","","","","","","","1","","","","[""A"",""B"",""C""]","[""D"",""H"",""L""]","true","[""<p>Sequence 1</p>"",""stimuli/field_32.jpg"",""stimuli/street_15.jpg"",""stimuli/gym_68.jpg""]","[""<p>Sequence 2</p>"",""stimuli/stream_57.jpg"",""stimuli/bathroom_63.jpg"",""stimuli/desert_6.jpg""]"
"","null","html-keyboard-response","494","2.0.0","559981","peefa9q8jxy","leopard","<p>Sequence 1</p>","null","","","","","","","","","","","","","","",""
"","null","image-keyboard-response","495","2.0.0","560984","peefa9q8jxy","leopard","stimuli/bar_53.jpg","null","","","","","","","","","","","","","","",""
"","null","image-keyboard-response","496","2.0.0","561991","peefa9q8jxy","leopard","stimuli/kitchen_36.jpg","null","","","","","","","","","","","","","","",""
"","null","image-keyboard-response","497","2.0.0","562994","peefa9q8jxy","leopard","stimuli/gym_68.jpg","null","","","","","","","","","","","","","","",""
"","null","html-keyboard-response","498","2.0.0","563999","peefa9q8jxy","leopard","<p></p>","null","","","","","","","","","","","","","","",""
"","null","html-keyboard-response","499","2.0.0","565002","peefa9q8jxy","leopard","<p>Sequence 2</p>","null","","","","","","","","","","","","","","",""
"","null","image-keyboard-response","500","2.0.0","566004","peefa9q8jxy","leopard","stimuli/field_32.jpg","null","","","","","","","","","","","","","","",""
"","null","image-keyboard-response","501","2.0.0","567020","peefa9q8jxy","leopard","stimuli/street_15.jpg","null","","","","","","","","","","","","","","",""
