"success","timeout","failed_images","failed_audio","failed_video","trial_type","trial_index","plugin_version","time_elapsed","random_id","participant","rt","stimulus","response","category","letter","correct_response","correct_response_key","trial_counter","current_image","test_triplet","foil_triplet","correct","firstSequencePaths","secondSequencePaths"
"true","false","[]","[]","[]","preload","0","2.0.0","267","pezx9btl65e","hedgehog","","","","","","","","","","","","","",""
"true","","","","","fullscreen","1","null","2223","pezx9btl65e","hedgehog","943","","","","","","","","","","","","",""
"","","","","","html-keyboard-response","2","2.0.0","3583","pezx9btl65e","hedgehog","1358","Welcome to the experiment. Press any key to begin."," ","","","","","","","","","","",""
"","","","","","survey-text","3","2.0.0","7041","pezx9btl65e","hedgehog","3453","","{""participant_id"":""hedgehog""}","","","","","","","","","","",""
"","","","","","html-keyboard-response","4","2.0.0","11719","pezx9btl65e","hedgehog","4677","
  <p>For this trial, you will see a series of images.</p>
  <p><b>Press the spacebar whenever you see the same image appear twice in a row.</b></p>
  <p>In other words, whenever the same image repeats back to back, press the spacebar.</p>
  <p>Press any key to begin.</p>"," ","","","","","","","","","","",""
"","","","","","image-keyboard-response","5","2.0.0","12735","pezx9btl65e","hedgehog","null","stimuli/bar_44.jpg","null","bar","G","non-repeat","null","0","stimuli/bar_44.jpg","","","","",""
"","","","","","image-keyboard-response","6","2.0.0","13749","pezx9btl65e","hedgehog","null","stimuli/bathroom_50.jpg","null","bathroom","H","non-repeat","null","1","stimuli/bathroom_50.jpg","","","","",""
"","","","","","image-keyboard-response","7","2.0.0","14764","pezx9btl65e","hedgehog","null","stimuli/bridge_16.jpg","null","bridge","I","non-repeat","null","2","stimuli/bridge_16.jpg","","","","",""
"","","","","","image-keyboard-response","8","2.0.0","15780","pezx9btl65e","hedgehog","null","stimuli/field_26.jpg","null","field","D","non-repeat","null","3","stimuli/field_26.jpg","","","","",""
"","","","","","image-keyboard-response","9","2.0.0","16794","pezx9btl65e","hedgehog","null","stimuli/desert_46.jpg","null","desert","E","non-repeat","null","4","stimuli/desert_46.jpg","","","","",""
"","","","","","image-keyboard-response","10","2.0.0","17809","pezx9btl65e","hedgehog","null","stimuli/woods_16.jpg","null","woods","F","non-repeat","null","5","stimuli/woods_16.jpg","","","","",""
"","","","","","image-keyboard-response","11","2.0.0","18822","pezx9btl65e","hedgehog","null","stimuli/kitchen_43.jpg","null","kitchen","J","non-repeat","null","6","stimuli/kitchen_43.jpg","","","","",""
"","","","","","image-keyboard-response","12","2.0.0","19837","pezx9btl65e","hedgehog","null","stimuli/playground_37.jpg","null","playground","K","non-repeat","null","7","stimuli/playground_37.jpg","","","","",""
"","","","","","image-keyboard-response","13","2.0.0","20852","pezx9btl65e","hedgehog","null","stimuli/stream_35.jpg","null","stream","L","non-repeat","null","8","stimuli/stream_35.jpg","","","","",""
"","","","","","image-keyboard-response","14","2.0.0","21866","pezx9btl65e","hedgehog","null","stimuli/field_26.jpg","null","field","D","non-repeat","null","9","stimuli/field_26.jpg","","","","",""
"","","","","","image-keyboard-response","15","2.0.0","22879","pezx9btl65e","hedgehog","603","stimuli/field_26.jpg"," ","field","D","repeat"," ","9","","","","","",""
"","","","","","image-keyboard-response","16","2.0.0","23893","pezx9btl65e","hedgehog","null","stimuli/desert_46.jpg","null","desert","E","non-repeat","null","10","stimuli/desert_46.jpg","","","","",""
"","","","","","image-keyboard-response","17","2.0.0","24906","pezx9btl65e","hedgehog","null","stimuli/woods_16.jpg","null","woods","F","non-repeat","null","11","stimuli/woods_16.jpg","","","","",""
"","","","","","image-keyboard-response","18","2.0.0","25922","pezx9btl65e","hedgehog","null","stimuli/street_31.jpg","null","street","A","non-repeat","null","12","stimuli/street_31.jpg","","","","",""
"","","","","","image-keyboard-response","19","2.0.0","26935","pezx9btl65e","hedgehog","null","stimuli/coast_63.jpg","null","coast","B","non-repeat","null","13","stimuli/coast_63.jpg","","","","",""
"","","","","","image-keyboard-response","20","2.0.0","27948","pezx9btl65e","hedgehog","null","stimuli/gym_18.jpg","null","gym","C","non-repeat","null","14","stimuli/gym_18.jpg","","","","",""
"","","","","","image-keyboard-response","21","2.0.0","28961","pezx9btl65e","hedgehog","null","stimuli/field_26.jpg","null","field","D","non-repeat","null","15","stimuli/field_26.jpg","","","","",""
"","","","","","image-keyboard-response","22","2.0.0","29974","pezx9btl65e","hedgehog","null","stimuli/desert_46.jpg","null","desert","E","non-repeat","null","16","stimuli/desert_46.jpg","","","","",""
"","","","","","image-keyboard-response","23","2.0.0","30987","pezx9btl65e","hedgehog","null","stimuli/woods_16.jpg","null","woods","F","non-repeat","null","17","stimuli/woods_16.jpg","","","","",""
"","","","","","image-keyboard-response","24","2.0.0","31998","pezx9btl65e","hedgehog","null","stimuli/street_31.jpg","null","street","A","non-repeat","null","18","stimuli/street_31.jpg","","","","",""
"","","","","","image-keyboard-response","25","2.0.0","33014","pezx9btl65e","hedgehog","687","stimuli/coast_63.jpg"," ","coast","B","non-repeat","null","19","stimuli/coast_63.jpg","","","","",""
"","","","","","image-keyboard-response","26","2.0.0","34028","pezx9btl65e","hedgehog","null","stimuli/gym_18.jpg","null","gym","C","non-repeat","null","20","stimuli/gym_18.jpg","","","","",""
"","","","","","image-keyboard-response","27","2.0.0","35041","pezx9btl65e","hedgehog","793","stimuli/gym_18.jpg"," ","gym","C","repeat"," ","20","","","","","",""
"","","","","","image-keyboard-response","28","2.0.0","36055","pezx9btl65e","hedgehog","null","stimuli/bar_44.jpg","null","bar","G","non-repeat","null","21","stimuli/bar_44.jpg","","","","",""
"","","","","","image-keyboard-response","29","2.0.0","37066","pezx9btl65e","hedgehog","null","stimuli/bathroom_50.jpg","null","bathroom","H","non-repeat","null","22","stimuli/bathroom_50.jpg","","","","",""
"","","","","","image-keyboard-response","30","2.0.0","38080","pezx9btl65e","hedgehog","null","stimuli/bridge_16.jpg","null","bridge","I","non-repeat","null","23","stimuli/bridge_16.jpg","","","","",""
"","","","","","image-keyboard-response","31","2.0.0","39093","pezx9btl65e","hedgehog","null","stimuli/field_26.jpg","null","field","D","non-repeat","null","24","stimuli/field_26.jpg","","","","",""
"","","","","","image-keyboard-response","32","2.0.0","40105","pezx9btl65e","hedgehog","449","stimuli/field_26.jpg"," ","field","D","repeat"," ","24","","","","","",""
"","","","","","image-keyboard-response","33","2.0.0","41119","pezx9btl65e","hedgehog","null","stimuli/desert_46.jpg","null","desert","E","non-repeat","null","25","stimuli/desert_46.jpg","","","","",""
"","","","","","image-keyboard-response","34","2.0.0","42136","pezx9btl65e","hedgehog","null","stimuli/woods_16.jpg","null","woods","F","non-repeat","null","26","stimuli/woods_16.jpg","","","","",""
"","","","","","image-keyboard-response","35","2.0.0","43148","pezx9btl65e","hedgehog","null","stimuli/kitchen_43.jpg","null","kitchen","J","non-repeat","null","27","stimuli/kitchen_43.jpg","","","","",""
"","","","","","image-keyboard-response","36","2.0.0","44164","pezx9btl65e","hedgehog","null","stimuli/playground_37.jpg","null","playground","K","non-repeat","null","28","stimuli/playground_37.jpg","","","","",""
"","","","","","image-keyboard-response","37","2.0.0","45181","pezx9btl65e","hedgehog","null","stimuli/stream_35.jpg","null","stream","L","non-repeat","null","29","stimuli/stream_35.jpg","","","","",""
"","","","","","image-keyboard-response","38","2.0.0","46199","pezx9btl65e","hedgehog","null","stimuli/field_26.jpg","null","field","D","non-repeat","null","30","stimuli/field_26.jpg","","","","",""
"","","","","","image-keyboard-response","39","2.0.0","47214","pezx9btl65e","hedgehog","null","stimuli/desert_46.jpg","null","desert","E","non-repeat","null","31","stimuli/desert_46.jpg","","","","",""
"","","","","","image-keyboard-response","40","2.0.0","48229","pezx9btl65e","hedgehog","null","stimuli/woods_16.jpg","null","woods","F","non-repeat","null","32","stimuli/woods_16.jpg","","","","",""
"","","","","","image-keyboard-response","41","2.0.0","49240","pezx9btl65e","hedgehog","null","stimuli/street_31.jpg","null","street","A","non-repeat","null","33","stimuli/street_31.jpg","","","","",""
"","","","","","image-keyboard-response","42","2.0.0","50252","pezx9btl65e","hedgehog","null","stimuli/coast_63.jpg","null","coast","B","non-repeat","null","34","stimuli/coast_63.jpg","","","","",""
"","","","","","image-keyboard-response","43","2.0.0","51268","pezx9btl65e","hedgehog","null","stimuli/gym_18.jpg","null","gym","C","non-repeat","null","35","stimuli/gym_18.jpg","","","","",""
"","","","","","image-keyboard-response","44","2.0.0","52280","pezx9btl65e","hedgehog","null","stimuli/field_26.jpg","null","field","D","non-repeat","null","36","stimuli/field_26.jpg","","","","",""
"","","","","","image-keyboard-response","45","2.0.0","53282","pezx9btl65e","hedgehog","null","stimuli/desert_46.jpg","null","desert","E","non-repeat","null","37","stimuli/desert_46.jpg","","","","",""
"","","","","","image-keyboard-response","46","2.0.0","54295","pezx9btl65e","hedgehog","null","stimuli/woods_16.jpg","null","woods","F","non-repeat","null","38","stimuli/woods_16.jpg","","","","",""
"","","","","","image-keyboard-response","47","2.0.0","55308","pezx9btl65e","hedgehog","null","stimuli/kitchen_43.jpg","null","kitchen","J","non-repeat","null","39","stimuli/kitchen_43.jpg","","","","",""
"","","","","","image-keyboard-response","48","2.0.0","56324","pezx9btl65e","hedgehog","null","stimuli/playground_37.jpg","null","playground","K","non-repeat","null","40","stimuli/playground_37.jpg","","","","",""
"","","","","","image-keyboard-response","49","2.0.0","57335","pezx9btl65e","hedgehog","null","stimuli/stream_35.jpg","null","stream","L","non-repeat","null","41","stimuli/stream_35.jpg","","","","",""
"","","","","","image-keyboard-response","50","2.0.0","58348","pezx9btl65e","hedgehog","null","stimuli/street_31.jpg","null","street","A","non-repeat","null","42","stimuli/street_31.jpg","","","","",""
"","","","","","image-keyboard-response","51","2.0.0","59363","pezx9btl65e","hedgehog","386","stimuli/street_31.jpg"," ","street","A","repeat"," ","42","","","","","",""
"","","","","","image-keyboard-response","52","2.0.0","60378","pezx9btl65e","hedgehog","null","stimuli/coast_63.jpg","null","coast","B","non-repeat","null","43","stimuli/coast_63.jpg","","","","",""
"","","","","","image-keyboard-response","53","2.0.0","61390","pezx9btl65e","hedgehog","null","stimuli/gym_18.jpg","null","gym","C","non-repeat","null","44","stimuli/gym_18.jpg","","","","",""
"","","","","","image-keyboard-response","54","2.0.0","62400","pezx9btl65e","hedgehog","832","stimuli/gym_18.jpg"," ","gym","C","repeat"," ","44","","","","","",""
"","","","","","image-keyboard-response","55","2.0.0","63417","pezx9btl65e","hedgehog","null","stimuli/field_26.jpg","null","field","D","non-repeat","null","45","stimuli/field_26.jpg","","","","",""
"","","","","","image-keyboard-response","56","2.0.0","64433","pezx9btl65e","hedgehog","null","stimuli/desert_46.jpg","null","desert","E","non-repeat","null","46","stimuli/desert_46.jpg","","","","",""
"","","","","","image-keyboard-response","57","2.0.0","65450","pezx9btl65e","hedgehog","null","stimuli/woods_16.jpg","null","woods","F","non-repeat","null","47","stimuli/woods_16.jpg","","","","",""
"","","","","","image-keyboard-response","58","2.0.0","66465","pezx9btl65e","hedgehog","null","stimuli/bar_44.jpg","null","bar","G","non-repeat","null","48","stimuli/bar_44.jpg","","","","",""
"","","","","","image-keyboard-response","59","2.0.0","67479","pezx9btl65e","hedgehog","null","stimuli/bathroom_50.jpg","null","bathroom","H","non-repeat","null","49","stimuli/bathroom_50.jpg","","","","",""
"","","","","","image-keyboard-response","60","2.0.0","68492","pezx9btl65e","hedgehog","null","stimuli/bridge_16.jpg","null","bridge","I","non-repeat","null","50","stimuli/bridge_16.jpg","","","","",""
"","","","","","image-keyboard-response","61","2.0.0","69505","pezx9btl65e","hedgehog","null","stimuli/street_31.jpg","null","street","A","non-repeat","null","51","stimuli/street_31.jpg","","","","",""
"","","","","","image-keyboard-response","62","2.0.0","70519","pezx9btl65e","hedgehog","null","stimuli/coast_63.jpg","null","coast","B","non-repeat","null","52","stimuli/coast_63.jpg","","","","",""
"","","","","","image-keyboard-response","63","2.0.0","71530","pezx9btl65e","hedgehog","null","stimuli/gym_18.jpg","null","gym","C","non-repeat","null","53","stimuli/gym_18.jpg","","","","",""
"","","","","","image-keyboard-response","64","2.0.0","72544","pezx9btl65e","hedgehog","null","stimuli/bar_44.jpg","null","bar","G","non-repeat","null","54","stimuli/bar_44.jpg","","","","",""
"","","","","","image-keyboard-response","65","2.0.0","73556","pezx9btl65e","hedgehog","null","stimuli/bathroom_50.jpg","null","bathroom","H","non-repeat","null","55","stimuli/bathroom_50.jpg","","","","",""
"","","","","","image-keyboard-response","66","2.0.0","74566","pezx9btl65e","hedgehog","null","stimuli/bridge_16.jpg","null","bridge","I","non-repeat","null","56","stimuli/bridge_16.jpg","","","","",""
"","","","","","image-keyboard-response","67","2.0.0","75576","pezx9btl65e","hedgehog","null","stimuli/kitchen_43.jpg","null","kitchen","J","non-repeat","null","57","stimuli/kitchen_43.jpg","","","","",""
"","","","","","image-keyboard-response","68","2.0.0","76593","pezx9btl65e","hedgehog","null","stimuli/playground_37.jpg","null","playground","K","non-repeat","null","58","stimuli/playground_37.jpg","","","","",""
"","","","","","image-keyboard-response","69","2.0.0","77605","pezx9btl65e","hedgehog","null","stimuli/stream_35.jpg","null","stream","L","non-repeat","null","59","stimuli/stream_35.jpg","","","","",""
"","","","","","image-keyboard-response","70","2.0.0","78617","pezx9btl65e","hedgehog","null","stimuli/field_26.jpg","null","field","D","non-repeat","null","60","stimuli/field_26.jpg","","","","",""
"","","","","","image-keyboard-response","71","2.0.0","79628","pezx9btl65e","hedgehog","null","stimuli/desert_46.jpg","null","desert","E","non-repeat","null","61","stimuli/desert_46.jpg","","","","",""
"","","","","","image-keyboard-response","72","2.0.0","80632","pezx9btl65e","hedgehog","null","stimuli/woods_16.jpg","null","woods","F","non-repeat","null","62","stimuli/woods_16.jpg","","","","",""
"","","","","","image-keyboard-response","73","2.0.0","81641","pezx9btl65e","hedgehog","null","stimuli/woods_16.jpg","null","woods","F","repeat"," ","62","","","","","",""
"","","","","","image-keyboard-response","74","2.0.0","82652","pezx9btl65e","hedgehog","null","stimuli/kitchen_43.jpg","null","kitchen","J","non-repeat","null","63","stimuli/kitchen_43.jpg","","","","",""
"","","","","","image-keyboard-response","75","2.0.0","83668","pezx9btl65e","hedgehog","null","stimuli/playground_37.jpg","null","playground","K","non-repeat","null","64","stimuli/playground_37.jpg","","","","",""
"","","","","","image-keyboard-response","76","2.0.0","84675","pezx9btl65e","hedgehog","null","stimuli/stream_35.jpg","null","stream","L","non-repeat","null","65","stimuli/stream_35.jpg","","","","",""
"","","","","","image-keyboard-response","77","2.0.0","85688","pezx9btl65e","hedgehog","null","stimuli/stream_35.jpg","null","stream","L","repeat"," ","65","","","","","",""
"","","","","","image-keyboard-response","78","2.0.0","86703","pezx9btl65e","hedgehog","null","stimuli/field_26.jpg","null","field","D","non-repeat","null","66","stimuli/field_26.jpg","","","","",""
"","","","","","image-keyboard-response","79","2.0.0","87716","pezx9btl65e","hedgehog","null","stimuli/desert_46.jpg","null","desert","E","non-repeat","null","67","stimuli/desert_46.jpg","","","","",""
"","","","","","image-keyboard-response","80","2.0.0","88733","pezx9btl65e","hedgehog","null","stimuli/woods_16.jpg","null","woods","F","non-repeat","null","68","stimuli/woods_16.jpg","","","","",""
"","","","","","image-keyboard-response","81","2.0.0","89749","pezx9btl65e","hedgehog","null","stimuli/bar_44.jpg","null","bar","G","non-repeat","null","69","stimuli/bar_44.jpg","","","","",""
"","","","","","image-keyboard-response","82","2.0.0","90760","pezx9btl65e","hedgehog","null","stimuli/bathroom_50.jpg","null","bathroom","H","non-repeat","null","70","stimuli/bathroom_50.jpg","","","","",""
"","","","","","image-keyboard-response","83","2.0.0","91773","pezx9btl65e","hedgehog","null","stimuli/bridge_16.jpg","null","bridge","I","non-repeat","null","71","stimuli/bridge_16.jpg","","","","",""
"","","","","","image-keyboard-response","84","2.0.0","92783","pezx9btl65e","hedgehog","null","stimuli/field_26.jpg","null","field","D","non-repeat","null","72","stimuli/field_26.jpg","","","","",""
"","","","","","image-keyboard-response","85","2.0.0","93797","pezx9btl65e","hedgehog","655","stimuli/field_26.jpg"," ","field","D","repeat"," ","72","","","","","",""
"","","","","","image-keyboard-response","86","2.0.0","94813","pezx9btl65e","hedgehog","null","stimuli/desert_46.jpg","null","desert","E","non-repeat","null","73","stimuli/desert_46.jpg","","","","",""
"","","","","","image-keyboard-response","87","2.0.0","95823","pezx9btl65e","hedgehog","null","stimuli/woods_16.jpg","null","woods","F","non-repeat","null","74","stimuli/woods_16.jpg","","","","",""
"","","","","","image-keyboard-response","88","2.0.0","96826","pezx9btl65e","hedgehog","null","stimuli/bar_44.jpg","null","bar","G","non-repeat","null","75","stimuli/bar_44.jpg","","","","",""
"","","","","","image-keyboard-response","89","2.0.0","97840","pezx9btl65e","hedgehog","null","stimuli/bathroom_50.jpg","null","bathroom","H","non-repeat","null","76","stimuli/bathroom_50.jpg","","","","",""
"","","","","","image-keyboard-response","90","2.0.0","98855","pezx9btl65e","hedgehog","null","stimuli/bridge_16.jpg","null","bridge","I","non-repeat","null","77","stimuli/bridge_16.jpg","","","","",""
"","","","","","image-keyboard-response","91","2.0.0","99863","pezx9btl65e","hedgehog","null","stimuli/kitchen_43.jpg","null","kitchen","J","non-repeat","null","78","stimuli/kitchen_43.jpg","","","","",""
"","","","","","image-keyboard-response","92","2.0.0","100874","pezx9btl65e","hedgehog","null","stimuli/playground_37.jpg","null","playground","K","non-repeat","null","79","stimuli/playground_37.jpg","","","","",""
"","","","","","image-keyboard-response","93","2.0.0","101889","pezx9btl65e","hedgehog","null","stimuli/stream_35.jpg","null","stream","L","non-repeat","null","80","stimuli/stream_35.jpg","","","","",""
"","","","","","image-keyboard-response","94","2.0.0","102903","pezx9btl65e","hedgehog","null","stimuli/field_26.jpg","null","field","D","non-repeat","null","81","stimuli/field_26.jpg","","","","",""
"","","","","","image-keyboard-response","95","2.0.0","103915","pezx9btl65e","hedgehog","null","stimuli/desert_46.jpg","null","desert","E","non-repeat","null","82","stimuli/desert_46.jpg","","","","",""
"","","","","","image-keyboard-response","96","2.0.0","104930","pezx9btl65e","hedgehog","null","stimuli/woods_16.jpg","null","woods","F","non-repeat","null","83","stimuli/woods_16.jpg","","","","",""
"","","","","","image-keyboard-response","97","2.0.0","105942","pezx9btl65e","hedgehog","null","stimuli/kitchen_43.jpg","null","kitchen","J","non-repeat","null","84","stimuli/kitchen_43.jpg","","","","",""
"","","","","","image-keyboard-response","98","2.0.0","106957","pezx9btl65e","hedgehog","null","stimuli/playground_37.jpg","null","playground","K","non-repeat","null","85","stimuli/playground_37.jpg","","","","",""
"","","","","","image-keyboard-response","99","2.0.0","107972","pezx9btl65e","hedgehog","null","stimuli/stream_35.jpg","null","stream","L","non-repeat","null","86","stimuli/stream_35.jpg","","","","",""
"","","","","","image-keyboard-response","100","2.0.0","108986","pezx9btl65e","hedgehog","null","stimuli/street_31.jpg","null","street","A","non-repeat","null","87","stimuli/street_31.jpg","","","","",""
"","","","","","image-keyboard-response","101","2.0.0","109994","pezx9btl65e","hedgehog","null","stimuli/coast_63.jpg","null","coast","B","non-repeat","null","88","stimuli/coast_63.jpg","","","","",""
"","","","","","image-keyboard-response","102","2.0.0","111007","pezx9btl65e","hedgehog","null","stimuli/gym_18.jpg","null","gym","C","non-repeat","null","89","stimuli/gym_18.jpg","","","","",""
"","","","","","image-keyboard-response","103","2.0.0","112019","pezx9btl65e","hedgehog","null","stimuli/bar_44.jpg","null","bar","G","non-repeat","null","90","stimuli/bar_44.jpg","","","","",""
"","","","","","image-keyboard-response","104","2.0.0","113033","pezx9btl65e","hedgehog","null","stimuli/bathroom_50.jpg","null","bathroom","H","non-repeat","null","91","stimuli/bathroom_50.jpg","","","","",""
"","","","","","image-keyboard-response","105","2.0.0","114037","pezx9btl65e","hedgehog","null","stimuli/bridge_16.jpg","null","bridge","I","non-repeat","null","92","stimuli/bridge_16.jpg","","","","",""
"","","","","","image-keyboard-response","106","2.0.0","115051","pezx9btl65e","hedgehog","null","stimuli/kitchen_43.jpg","null","kitchen","J","non-repeat","null","93","stimuli/kitchen_43.jpg","","","","",""
"","","","","","image-keyboard-response","107","2.0.0","116064","pezx9btl65e","hedgehog","459","stimuli/kitchen_43.jpg"," ","kitchen","J","repeat"," ","93","","","","","",""
"","","","","","image-keyboard-response","108","2.0.0","117077","pezx9btl65e","hedgehog","null","stimuli/playground_37.jpg","null","playground","K","non-repeat","null","94","stimuli/playground_37.jpg","","","","",""
"","","","","","image-keyboard-response","109","2.0.0","118088","pezx9btl65e","hedgehog","null","stimuli/stream_35.jpg","null","stream","L","non-repeat","null","95","stimuli/stream_35.jpg","","","","",""
"","","","","","image-keyboard-response","110","2.0.0","119101","pezx9btl65e","hedgehog","null","stimuli/street_31.jpg","null","street","A","non-repeat","null","96","stimuli/street_31.jpg","","","","",""
"","","","","","image-keyboard-response","111","2.0.0","120116","pezx9btl65e","hedgehog","null","stimuli/coast_63.jpg","null","coast","B","non-repeat","null","97","stimuli/coast_63.jpg","","","","",""
"","","","","","image-keyboard-response","112","2.0.0","121130","pezx9btl65e","hedgehog","null","stimuli/gym_18.jpg","null","gym","C","non-repeat","null","98","stimuli/gym_18.jpg","","","","",""
"","","","","","image-keyboard-response","113","2.0.0","122144","pezx9btl65e","hedgehog","null","stimuli/bar_44.jpg","null","bar","G","non-repeat","null","99","stimuli/bar_44.jpg","","","","",""
"","","","","","image-keyboard-response","114","2.0.0","123157","pezx9btl65e","hedgehog","null","stimuli/bathroom_50.jpg","null","bathroom","H","non-repeat","null","100","stimuli/bathroom_50.jpg","","","","",""
"","","","","","image-keyboard-response","115","2.0.0","124166","pezx9btl65e","hedgehog","null","stimuli/bridge_16.jpg","null","bridge","I","non-repeat","null","101","stimuli/bridge_16.jpg","","","","",""
"","","","","","image-keyboard-response","116","2.0.0","125180","pezx9btl65e","hedgehog","null","stimuli/kitchen_43.jpg","null","kitchen","J","non-repeat","null","102","stimuli/kitchen_43.jpg","","","","",""
"","","","","","image-keyboard-response","117","2.0.0","126193","pezx9btl65e","hedgehog","null","stimuli/playground_37.jpg","null","playground","K","non-repeat","null","103","stimuli/playground_37.jpg","","","","",""
"","","","","","image-keyboard-response","118","2.0.0","127207","pezx9btl65e","hedgehog","null","stimuli/stream_35.jpg","null","stream","L","non-repeat","null","104","stimuli/stream_35.jpg","","","","",""
"","","","","","image-keyboard-response","119","2.0.0","128220","pezx9btl65e","hedgehog","351","stimuli/stream_35.jpg"," ","stream","L","repeat"," ","104","","","","","",""
"","","","","","image-keyboard-response","120","2.0.0","129232","pezx9btl65e","hedgehog","null","stimuli/field_26.jpg","null","field","D","non-repeat","null","105","stimuli/field_26.jpg","","","","",""
"","","","","","image-keyboard-response","121","2.0.0","130246","pezx9btl65e","hedgehog","null","stimuli/desert_46.jpg","null","desert","E","non-repeat","null","106","stimuli/desert_46.jpg","","","","",""
"","","","","","image-keyboard-response","122","2.0.0","131256","pezx9btl65e","hedgehog","null","stimuli/woods_16.jpg","null","woods","F","non-repeat","null","107","stimuli/woods_16.jpg","","","","",""
"","","","","","image-keyboard-response","123","2.0.0","132273","pezx9btl65e","hedgehog","null","stimuli/bar_44.jpg","null","bar","G","non-repeat","null","108","stimuli/bar_44.jpg","","","","",""
"","","","","","image-keyboard-response","124","2.0.0","133285","pezx9btl65e","hedgehog","773","stimuli/bar_44.jpg"," ","bar","G","repeat"," ","108","","","","","",""
"","","","","","image-keyboard-response","125","2.0.0","134299","pezx9btl65e","hedgehog","null","stimuli/bathroom_50.jpg","null","bathroom","H","non-repeat","null","109","stimuli/bathroom_50.jpg","","","","",""
"","","","","","image-keyboard-response","126","2.0.0","135315","pezx9btl65e","hedgehog","null","stimuli/bridge_16.jpg","null","bridge","I","non-repeat","null","110","stimuli/bridge_16.jpg","","","","",""
"","","","","","image-keyboard-response","127","2.0.0","136329","pezx9btl65e","hedgehog","null","stimuli/kitchen_43.jpg","null","kitchen","J","non-repeat","null","111","stimuli/kitchen_43.jpg","","","","",""
"","","","","","image-keyboard-response","128","2.0.0","137334","pezx9btl65e","hedgehog","980","stimuli/kitchen_43.jpg"," ","kitchen","J","repeat"," ","111","","","","","",""
"","","","","","image-keyboard-response","129","2.0.0","138340","pezx9btl65e","hedgehog","null","stimuli/playground_37.jpg","null","playground","K","non-repeat","null","112","stimuli/playground_37.jpg","","","","",""
"","","","","","image-keyboard-response","130","2.0.0","139355","pezx9btl65e","hedgehog","null","stimuli/stream_35.jpg","null","stream","L","non-repeat","null","113","stimuli/stream_35.jpg","","","","",""
"","","","","","image-keyboard-response","131","2.0.0","140372","pezx9btl65e","hedgehog","null","stimuli/bar_44.jpg","null","bar","G","non-repeat","null","114","stimuli/bar_44.jpg","","","","",""
"","","","","","image-keyboard-response","132","2.0.0","141384","pezx9btl65e","hedgehog","null","stimuli/bathroom_50.jpg","null","bathroom","H","non-repeat","null","115","stimuli/bathroom_50.jpg","","","","",""
"","","","","","image-keyboard-response","133","2.0.0","142392","pezx9btl65e","hedgehog","null","stimuli/bridge_16.jpg","null","bridge","I","non-repeat","null","116","stimuli/bridge_16.jpg","","","","",""
"","","","","","image-keyboard-response","134","2.0.0","143396","pezx9btl65e","hedgehog","null","stimuli/street_31.jpg","null","street","A","non-repeat","null","117","stimuli/street_31.jpg","","","","",""
"","","","","","image-keyboard-response","135","2.0.0","144400","pezx9btl65e","hedgehog","null","stimuli/coast_63.jpg","null","coast","B","non-repeat","null","118","stimuli/coast_63.jpg","","","","",""
"","","","","","image-keyboard-response","136","2.0.0","145410","pezx9btl65e","hedgehog","null","stimuli/gym_18.jpg","null","gym","C","non-repeat","null","119","stimuli/gym_18.jpg","","","","",""
"","","","","","image-keyboard-response","137","2.0.0","146424","pezx9btl65e","hedgehog","null","stimuli/kitchen_43.jpg","null","kitchen","J","non-repeat","null","120","stimuli/kitchen_43.jpg","","","","",""
"","","","","","image-keyboard-response","138","2.0.0","147428","pezx9btl65e","hedgehog","null","stimuli/playground_37.jpg","null","playground","K","non-repeat","null","121","stimuli/playground_37.jpg","","","","",""
"","","","","","image-keyboard-response","139","2.0.0","148443","pezx9btl65e","hedgehog","null","stimuli/stream_35.jpg","null","stream","L","non-repeat","null","122","stimuli/stream_35.jpg","","","","",""
"","","","","","image-keyboard-response","140","2.0.0","149457","pezx9btl65e","hedgehog","595","stimuli/stream_35.jpg"," ","stream","L","repeat"," ","122","","","","","",""
"","","","","","image-keyboard-response","141","2.0.0","150470","pezx9btl65e","hedgehog","868","stimuli/bar_44.jpg"," ","bar","G","non-repeat","null","123","stimuli/bar_44.jpg","","","","",""
"","","","","","image-keyboard-response","142","2.0.0","151487","pezx9btl65e","hedgehog","null","stimuli/bathroom_50.jpg","null","bathroom","H","non-repeat","null","124","stimuli/bathroom_50.jpg","","","","",""
"","","","","","image-keyboard-response","143","2.0.0","152502","pezx9btl65e","hedgehog","null","stimuli/bridge_16.jpg","null","bridge","I","non-repeat","null","125","stimuli/bridge_16.jpg","","","","",""
"","","","","","image-keyboard-response","144","2.0.0","153514","pezx9btl65e","hedgehog","null","stimuli/street_31.jpg","null","street","A","non-repeat","null","126","stimuli/street_31.jpg","","","","",""
"","","","","","image-keyboard-response","145","2.0.0","154529","pezx9btl65e","hedgehog","null","stimuli/coast_63.jpg","null","coast","B","non-repeat","null","127","stimuli/coast_63.jpg","","","","",""
"","","","","","image-keyboard-response","146","2.0.0","155538","pezx9btl65e","hedgehog","null","stimuli/gym_18.jpg","null","gym","C","non-repeat","null","128","stimuli/gym_18.jpg","","","","",""
"","","","","","image-keyboard-response","147","2.0.0","156551","pezx9btl65e","hedgehog","null","stimuli/bar_44.jpg","null","bar","G","non-repeat","null","129","stimuli/bar_44.jpg","","","","",""
"","","","","","image-keyboard-response","148","2.0.0","157566","pezx9btl65e","hedgehog","null","stimuli/bathroom_50.jpg","null","bathroom","H","non-repeat","null","130","stimuli/bathroom_50.jpg","","","","",""
"","","","","","image-keyboard-response","149","2.0.0","158582","pezx9btl65e","hedgehog","null","stimuli/bridge_16.jpg","null","bridge","I","non-repeat","null","131","stimuli/bridge_16.jpg","","","","",""
"","","","","","image-keyboard-response","150","2.0.0","159597","pezx9btl65e","hedgehog","null","stimuli/field_26.jpg","null","field","D","non-repeat","null","132","stimuli/field_26.jpg","","","","",""
"","","","","","image-keyboard-response","151","2.0.0","160611","pezx9btl65e","hedgehog","null","stimuli/desert_46.jpg","null","desert","E","non-repeat","null","133","stimuli/desert_46.jpg","","","","",""
"","","","","","image-keyboard-response","152","2.0.0","161625","pezx9btl65e","hedgehog","null","stimuli/woods_16.jpg","null","woods","F","non-repeat","null","134","stimuli/woods_16.jpg","","","","",""
"","","","","","image-keyboard-response","153","2.0.0","162638","pezx9btl65e","hedgehog","null","stimuli/kitchen_43.jpg","null","kitchen","J","non-repeat","null","135","stimuli/kitchen_43.jpg","","","","",""
"","","","","","image-keyboard-response","154","2.0.0","163653","pezx9btl65e","hedgehog","null","stimuli/playground_37.jpg","null","playground","K","non-repeat","null","136","stimuli/playground_37.jpg","","","","",""
"","","","","","image-keyboard-response","155","2.0.0","164657","pezx9btl65e","hedgehog","null","stimuli/stream_35.jpg","null","stream","L","non-repeat","null","137","stimuli/stream_35.jpg","","","","",""
"","","","","","image-keyboard-response","156","2.0.0","165670","pezx9btl65e","hedgehog","null","stimuli/street_31.jpg","null","street","A","non-repeat","null","138","stimuli/street_31.jpg","","","","",""
"","","","","","image-keyboard-response","157","2.0.0","166672","pezx9btl65e","hedgehog","null","stimuli/coast_63.jpg","null","coast","B","non-repeat","null","139","stimuli/coast_63.jpg","","","","",""
"","","","","","image-keyboard-response","158","2.0.0","167686","pezx9btl65e","hedgehog","null","stimuli/gym_18.jpg","null","gym","C","non-repeat","null","140","stimuli/gym_18.jpg","","","","",""
"","","","","","image-keyboard-response","159","2.0.0","168696","pezx9btl65e","hedgehog","null","stimuli/field_26.jpg","null","field","D","non-repeat","null","141","stimuli/field_26.jpg","","","","",""
"","","","","","image-keyboard-response","160","2.0.0","169702","pezx9btl65e","hedgehog","null","stimuli/desert_46.jpg","null","desert","E","non-repeat","null","142","stimuli/desert_46.jpg","","","","",""
"","","","","","image-keyboard-response","161","2.0.0","170712","pezx9btl65e","hedgehog","null","stimuli/woods_16.jpg","null","woods","F","non-repeat","null","143","stimuli/woods_16.jpg","","","","",""
"","","","","","image-keyboard-response","162","2.0.0","171722","pezx9btl65e","hedgehog","null","stimuli/bar_44.jpg","null","bar","G","non-repeat","null","144","stimuli/bar_44.jpg","","","","",""
"","","","","","image-keyboard-response","163","2.0.0","172736","pezx9btl65e","hedgehog","null","stimuli/bathroom_50.jpg","null","bathroom","H","non-repeat","null","145","stimuli/bathroom_50.jpg","","","","",""
"","","","","","image-keyboard-response","164","2.0.0","173751","pezx9btl65e","hedgehog","null","stimuli/bridge_16.jpg","null","bridge","I","non-repeat","null","146","stimuli/bridge_16.jpg","","","","",""
"","","","","","image-keyboard-response","165","2.0.0","174761","pezx9btl65e","hedgehog","null","stimuli/street_31.jpg","null","street","A","non-repeat","null","147","stimuli/street_31.jpg","","","","",""
"","","","","","image-keyboard-response","166","2.0.0","175775","pezx9btl65e","hedgehog","null","stimuli/coast_63.jpg","null","coast","B","non-repeat","null","148","stimuli/coast_63.jpg","","","","",""
"","","","","","image-keyboard-response","167","2.0.0","176782","pezx9btl65e","hedgehog","null","stimuli/gym_18.jpg","null","gym","C","non-repeat","null","149","stimuli/gym_18.jpg","","","","",""
"","","","","","image-keyboard-response","168","2.0.0","177793","pezx9btl65e","hedgehog","null","stimuli/kitchen_43.jpg","null","kitchen","J","non-repeat","null","150","stimuli/kitchen_43.jpg","","","","",""
"","","","","","image-keyboard-response","169","2.0.0","178810","pezx9btl65e","hedgehog","null","stimuli/playground_37.jpg","null","playground","K","non-repeat","null","151","stimuli/playground_37.jpg","","","","",""
"","","","","","image-keyboard-response","170","2.0.0","179821","pezx9btl65e","hedgehog","null","stimuli/stream_35.jpg","null","stream","L","non-repeat","null","152","stimuli/stream_35.jpg","","","","",""
"","","","","","image-keyboard-response","171","2.0.0","180824","pezx9btl65e","hedgehog","null","stimuli/street_31.jpg","null","street","A","non-repeat","null","153","stimuli/street_31.jpg","","","","",""
"","","","","","image-keyboard-response","172","2.0.0","181831","pezx9btl65e","hedgehog","566","stimuli/street_31.jpg"," ","street","A","repeat"," ","153","","","","","",""
"","","","","","image-keyboard-response","173","2.0.0","182834","pezx9btl65e","hedgehog","null","stimuli/coast_63.jpg","null","coast","B","non-repeat","null","154","stimuli/coast_63.jpg","","","","",""
"","","","","","image-keyboard-response","174","2.0.0","183842","pezx9btl65e","hedgehog","null","stimuli/gym_18.jpg","null","gym","C","non-repeat","null","155","stimuli/gym_18.jpg","","","","",""
"","","","","","image-keyboard-response","175","2.0.0","184850","pezx9btl65e","hedgehog","null","stimuli/gym_18.jpg","null","gym","C","repeat"," ","155","","","","","",""
"","","","","","image-keyboard-response","176","2.0.0","185863","pezx9btl65e","hedgehog","157","stimuli/field_26.jpg"," ","field","D","non-repeat","null","156","stimuli/field_26.jpg","","","","",""
"","","","","","image-keyboard-response","177","2.0.0","186879","pezx9btl65e","hedgehog","null","stimuli/desert_46.jpg","null","desert","E","non-repeat","null","157","stimuli/desert_46.jpg","","","","",""
"","","","","","image-keyboard-response","178","2.0.0","187886","pezx9btl65e","hedgehog","null","stimuli/woods_16.jpg","null","woods","F","non-repeat","null","158","stimuli/woods_16.jpg","","","","",""
"","","","","","image-keyboard-response","179","2.0.0","188902","pezx9btl65e","hedgehog","null","stimuli/kitchen_43.jpg","null","kitchen","J","non-repeat","null","159","stimuli/kitchen_43.jpg","","","","",""
"","","","","","image-keyboard-response","180","2.0.0","189919","pezx9btl65e","hedgehog","null","stimuli/playground_37.jpg","null","playground","K","non-repeat","null","160","stimuli/playground_37.jpg","","","","",""
"","","","","","image-keyboard-response","181","2.0.0","190935","pezx9btl65e","hedgehog","null","stimuli/stream_35.jpg","null","stream","L","non-repeat","null","161","stimuli/stream_35.jpg","","","","",""
"","","","","","image-keyboard-response","182","2.0.0","191949","pezx9btl65e","hedgehog","null","stimuli/street_31.jpg","null","street","A","non-repeat","null","162","stimuli/street_31.jpg","","","","",""
"","","","","","image-keyboard-response","183","2.0.0","192966","pezx9btl65e","hedgehog","713","stimuli/street_31.jpg"," ","street","A","repeat"," ","162","","","","","",""
"","","","","","image-keyboard-response","184","2.0.0","193981","pezx9btl65e","hedgehog","null","stimuli/coast_63.jpg","null","coast","B","non-repeat","null","163","stimuli/coast_63.jpg","","","","",""
"","","","","","image-keyboard-response","185","2.0.0","194994","pezx9btl65e","hedgehog","null","stimuli/gym_18.jpg","null","gym","C","non-repeat","null","164","stimuli/gym_18.jpg","","","","",""
"","","","","","image-keyboard-response","186","2.0.0","196009","pezx9btl65e","hedgehog","924","stimuli/gym_18.jpg"," ","gym","C","repeat"," ","164","","","","","",""
"","","","","","image-keyboard-response","187","2.0.0","197019","pezx9btl65e","hedgehog","null","stimuli/bar_44.jpg","null","bar","G","non-repeat","null","165","stimuli/bar_44.jpg","","","","",""
"","","","","","image-keyboard-response","188","2.0.0","198032","pezx9btl65e","hedgehog","null","stimuli/bathroom_50.jpg","null","bathroom","H","non-repeat","null","166","stimuli/bathroom_50.jpg","","","","",""
"","","","","","image-keyboard-response","189","2.0.0","199048","pezx9btl65e","hedgehog","null","stimuli/bridge_16.jpg","null","bridge","I","non-repeat","null","167","stimuli/bridge_16.jpg","","","","",""
"","","","","","image-keyboard-response","190","2.0.0","200058","pezx9btl65e","hedgehog","null","stimuli/field_26.jpg","null","field","D","non-repeat","null","168","stimuli/field_26.jpg","","","","",""
"","","","","","image-keyboard-response","191","2.0.0","201075","pezx9btl65e","hedgehog","null","stimuli/desert_46.jpg","null","desert","E","non-repeat","null","169","stimuli/desert_46.jpg","","","","",""
"","","","","","image-keyboard-response","192","2.0.0","202089","pezx9btl65e","hedgehog","null","stimuli/woods_16.jpg","null","woods","F","non-repeat","null","170","stimuli/woods_16.jpg","","","","",""
"","","","","","image-keyboard-response","193","2.0.0","203104","pezx9btl65e","hedgehog","525","stimuli/kitchen_43.jpg"," ","kitchen","J","non-repeat","null","171","stimuli/kitchen_43.jpg","","","","",""
"","","","","","image-keyboard-response","194","2.0.0","204112","pezx9btl65e","hedgehog","null","stimuli/playground_37.jpg","null","playground","K","non-repeat","null","172","stimuli/playground_37.jpg","","","","",""
"","","","","","image-keyboard-response","195","2.0.0","205123","pezx9btl65e","hedgehog","null","stimuli/stream_35.jpg","null","stream","L","non-repeat","null","173","stimuli/stream_35.jpg","","","","",""
"","","","","","image-keyboard-response","196","2.0.0","206135","pezx9btl65e","hedgehog","null","stimuli/field_26.jpg","null","field","D","non-repeat","null","174","stimuli/field_26.jpg","","","","",""
"","","","","","image-keyboard-response","197","2.0.0","207146","pezx9btl65e","hedgehog","null","stimuli/desert_46.jpg","null","desert","E","non-repeat","null","175","stimuli/desert_46.jpg","","","","",""
"","","","","","image-keyboard-response","198","2.0.0","208159","pezx9btl65e","hedgehog","null","stimuli/woods_16.jpg","null","woods","F","non-repeat","null","176","stimuli/woods_16.jpg","","","","",""
"","","","","","image-keyboard-response","199","2.0.0","209174","pezx9btl65e","hedgehog","null","stimuli/street_31.jpg","null","street","A","non-repeat","null","177","stimuli/street_31.jpg","","","","",""
"","","","","","image-keyboard-response","200","2.0.0","210191","pezx9btl65e","hedgehog","null","stimuli/coast_63.jpg","null","coast","B","non-repeat","null","178","stimuli/coast_63.jpg","","","","",""
"","","","","","image-keyboard-response","201","2.0.0","211205","pezx9btl65e","hedgehog","null","stimuli/gym_18.jpg","null","gym","C","non-repeat","null","179","stimuli/gym_18.jpg","","","","",""
"","","","","","image-keyboard-response","202","2.0.0","212213","pezx9btl65e","hedgehog","null","stimuli/bar_44.jpg","null","bar","G","non-repeat","null","180","stimuli/bar_44.jpg","","","","",""
"","","","","","image-keyboard-response","203","2.0.0","213228","pezx9btl65e","hedgehog","null","stimuli/bathroom_50.jpg","null","bathroom","H","non-repeat","null","181","stimuli/bathroom_50.jpg","","","","",""
"","","","","","image-keyboard-response","204","2.0.0","214240","pezx9btl65e","hedgehog","null","stimuli/bridge_16.jpg","null","bridge","I","non-repeat","null","182","stimuli/bridge_16.jpg","","","","",""
"","","","","","image-keyboard-response","205","2.0.0","215256","pezx9btl65e","hedgehog","null","stimuli/street_31.jpg","null","street","A","non-repeat","null","183","stimuli/street_31.jpg","","","","",""
"","","","","","image-keyboard-response","206","2.0.0","216270","pezx9btl65e","hedgehog","null","stimuli/coast_63.jpg","null","coast","B","non-repeat","null","184","stimuli/coast_63.jpg","","","","",""
"","","","","","image-keyboard-response","207","2.0.0","217285","pezx9btl65e","hedgehog","null","stimuli/gym_18.jpg","null","gym","C","non-repeat","null","185","stimuli/gym_18.jpg","","","","",""
"","","","","","image-keyboard-response","208","2.0.0","218302","pezx9btl65e","hedgehog","null","stimuli/field_26.jpg","null","field","D","non-repeat","null","186","stimuli/field_26.jpg","","","","",""
"","","","","","image-keyboard-response","209","2.0.0","219313","pezx9btl65e","hedgehog","null","stimuli/desert_46.jpg","null","desert","E","non-repeat","null","187","stimuli/desert_46.jpg","","","","",""
"","","","","","image-keyboard-response","210","2.0.0","220325","pezx9btl65e","hedgehog","null","stimuli/woods_16.jpg","null","woods","F","non-repeat","null","188","stimuli/woods_16.jpg","","","","",""
"","","","","","image-keyboard-response","211","2.0.0","221339","pezx9btl65e","hedgehog","null","stimuli/bar_44.jpg","null","bar","G","non-repeat","null","189","stimuli/bar_44.jpg","","","","",""
"","","","","","image-keyboard-response","212","2.0.0","222354","pezx9btl65e","hedgehog","null","stimuli/bathroom_50.jpg","null","bathroom","H","non-repeat","null","190","stimuli/bathroom_50.jpg","","","","",""
"","","","","","image-keyboard-response","213","2.0.0","223368","pezx9btl65e","hedgehog","null","stimuli/bridge_16.jpg","null","bridge","I","non-repeat","null","191","stimuli/bridge_16.jpg","","","","",""
"","","","","","image-keyboard-response","214","2.0.0","224381","pezx9btl65e","hedgehog","null","stimuli/kitchen_43.jpg","null","kitchen","J","non-repeat","null","192","stimuli/kitchen_43.jpg","","","","",""
"","","","","","image-keyboard-response","215","2.0.0","225395","pezx9btl65e","hedgehog","null","stimuli/kitchen_43.jpg","null","kitchen","J","repeat"," ","192","","","","","",""
"","","","","","image-keyboard-response","216","2.0.0","226400","pezx9btl65e","hedgehog","35","stimuli/playground_37.jpg"," ","playground","K","non-repeat","null","193","stimuli/playground_37.jpg","","","","",""
"","","","","","image-keyboard-response","217","2.0.0","227411","pezx9btl65e","hedgehog","null","stimuli/stream_35.jpg","null","stream","L","non-repeat","null","194","stimuli/stream_35.jpg","","","","",""
"","","","","","image-keyboard-response","218","2.0.0","228426","pezx9btl65e","hedgehog","null","stimuli/field_26.jpg","null","field","D","non-repeat","null","195","stimuli/field_26.jpg","","","","",""
"","","","","","image-keyboard-response","219","2.0.0","229440","pezx9btl65e","hedgehog","null","stimuli/desert_46.jpg","null","desert","E","non-repeat","null","196","stimuli/desert_46.jpg","","","","",""
"","","","","","image-keyboard-response","220","2.0.0","230454","pezx9btl65e","hedgehog","null","stimuli/woods_16.jpg","null","woods","F","non-repeat","null","197","stimuli/woods_16.jpg","","","","",""
"","","","","","image-keyboard-response","221","2.0.0","231468","pezx9btl65e","hedgehog","null","stimuli/street_31.jpg","null","street","A","non-repeat","null","198","stimuli/street_31.jpg","","","","",""
"","","","","","image-keyboard-response","222","2.0.0","232482","pezx9btl65e","hedgehog","null","stimuli/coast_63.jpg","null","coast","B","non-repeat","null","199","stimuli/coast_63.jpg","","","","",""
"","","","","","image-keyboard-response","223","2.0.0","233497","pezx9btl65e","hedgehog","null","stimuli/gym_18.jpg","null","gym","C","non-repeat","null","200","stimuli/gym_18.jpg","","","","",""
"","","","","","image-keyboard-response","224","2.0.0","234509","pezx9btl65e","hedgehog","null","stimuli/bar_44.jpg","null","bar","G","non-repeat","null","201","stimuli/bar_44.jpg","","","","",""
"","","","","","image-keyboard-response","225","2.0.0","235522","pezx9btl65e","hedgehog","null","stimuli/bar_44.jpg","null","bar","G","repeat"," ","201","","","","","",""
"","","","","","image-keyboard-response","226","2.0.0","236535","pezx9btl65e","hedgehog","117","stimuli/bathroom_50.jpg"," ","bathroom","H","non-repeat","null","202","stimuli/bathroom_50.jpg","","","","",""
"","","","","","image-keyboard-response","227","2.0.0","237540","pezx9btl65e","hedgehog","null","stimuli/bridge_16.jpg","null","bridge","I","non-repeat","null","203","stimuli/bridge_16.jpg","","","","",""
"","","","","","image-keyboard-response","228","2.0.0","238554","pezx9btl65e","hedgehog","null","stimuli/kitchen_43.jpg","null","kitchen","J","non-repeat","null","204","stimuli/kitchen_43.jpg","","","","",""
"","","","","","image-keyboard-response","229","2.0.0","239564","pezx9btl65e","hedgehog","null","stimuli/kitchen_43.jpg","null","kitchen","J","repeat"," ","204","","","","","",""
"","","","","","image-keyboard-response","230","2.0.0","240576","pezx9btl65e","hedgehog","290","stimuli/playground_37.jpg"," ","playground","K","non-repeat","null","205","stimuli/playground_37.jpg","","","","",""
"","","","","","image-keyboard-response","231","2.0.0","241579","pezx9btl65e","hedgehog","null","stimuli/stream_35.jpg","null","stream","L","non-repeat","null","206","stimuli/stream_35.jpg","","","","",""
"","","","","","image-keyboard-response","232","2.0.0","242592","pezx9btl65e","hedgehog","null","stimuli/bar_44.jpg","null","bar","G","non-repeat","null","207","stimuli/bar_44.jpg","","","","",""
"","","","","","image-keyboard-response","233","2.0.0","243601","pezx9btl65e","hedgehog","null","stimuli/bathroom_50.jpg","null","bathroom","H","non-repeat","null","208","stimuli/bathroom_50.jpg","","","","",""
"","","","","","image-keyboard-response","234","2.0.0","244609","pezx9btl65e","hedgehog","null","stimuli/bridge_16.jpg","null","bridge","I","non-repeat","null","209","stimuli/bridge_16.jpg","","","","",""
"","","","","","image-keyboard-response","235","2.0.0","245621","pezx9btl65e","hedgehog","null","stimuli/kitchen_43.jpg","null","kitchen","J","non-repeat","null","210","stimuli/kitchen_43.jpg","","","","",""
"","","","","","image-keyboard-response","236","2.0.0","246631","pezx9btl65e","hedgehog","433","stimuli/kitchen_43.jpg"," ","kitchen","J","repeat"," ","210","","","","","",""
"","","","","","image-keyboard-response","237","2.0.0","247643","pezx9btl65e","hedgehog","null","stimuli/playground_37.jpg","null","playground","K","non-repeat","null","211","stimuli/playground_37.jpg","","","","",""
"","","","","","image-keyboard-response","238","2.0.0","248659","pezx9btl65e","hedgehog","null","stimuli/stream_35.jpg","null","stream","L","non-repeat","null","212","stimuli/stream_35.jpg","","","","",""
"","","","","","image-keyboard-response","239","2.0.0","249669","pezx9btl65e","hedgehog","null","stimuli/bar_44.jpg","null","bar","G","non-repeat","null","213","stimuli/bar_44.jpg","","","","",""
"","","","","","image-keyboard-response","240","2.0.0","250684","pezx9btl65e","hedgehog","633","stimuli/bar_44.jpg"," ","bar","G","repeat"," ","213","","","","","",""
"","","","","","image-keyboard-response","241","2.0.0","251696","pezx9btl65e","hedgehog","null","stimuli/bathroom_50.jpg","null","bathroom","H","non-repeat","null","214","stimuli/bathroom_50.jpg","","","","",""
"","","","","","image-keyboard-response","242","2.0.0","252708","pezx9btl65e","hedgehog","null","stimuli/bridge_16.jpg","null","bridge","I","non-repeat","null","215","stimuli/bridge_16.jpg","","","","",""
"","","","","","image-keyboard-response","243","2.0.0","253724","pezx9btl65e","hedgehog","null","stimuli/street_31.jpg","null","street","A","non-repeat","null","216","stimuli/street_31.jpg","","","","",""
"","","","","","image-keyboard-response","244","2.0.0","254738","pezx9btl65e","hedgehog","554","stimuli/street_31.jpg"," ","street","A","repeat"," ","216","","","","","",""
"","","","","","image-keyboard-response","245","2.0.0","255751","pezx9btl65e","hedgehog","null","stimuli/coast_63.jpg","null","coast","B","non-repeat","null","217","stimuli/coast_63.jpg","","","","",""
"","","","","","image-keyboard-response","246","2.0.0","256762","pezx9btl65e","hedgehog","null","stimuli/gym_18.jpg","null","gym","C","non-repeat","null","218","stimuli/gym_18.jpg","","","","",""
"","","","","","image-keyboard-response","247","2.0.0","257779","pezx9btl65e","hedgehog","null","stimuli/bar_44.jpg","null","bar","G","non-repeat","null","219","stimuli/bar_44.jpg","","","","",""
"","","","","","image-keyboard-response","248","2.0.0","258792","pezx9btl65e","hedgehog","null","stimuli/bathroom_50.jpg","null","bathroom","H","non-repeat","null","220","stimuli/bathroom_50.jpg","","","","",""
"","","","","","image-keyboard-response","249","2.0.0","259808","pezx9btl65e","hedgehog","null","stimuli/bridge_16.jpg","null","bridge","I","non-repeat","null","221","stimuli/bridge_16.jpg","","","","",""
"","","","","","image-keyboard-response","250","2.0.0","260822","pezx9btl65e","hedgehog","null","stimuli/street_31.jpg","null","street","A","non-repeat","null","222","stimuli/street_31.jpg","","","","",""
"","","","","","image-keyboard-response","251","2.0.0","261834","pezx9btl65e","hedgehog","null","stimuli/coast_63.jpg","null","coast","B","non-repeat","null","223","stimuli/coast_63.jpg","","","","",""
"","","","","","image-keyboard-response","252","2.0.0","262846","pezx9btl65e","hedgehog","null","stimuli/gym_18.jpg","null","gym","C","non-repeat","null","224","stimuli/gym_18.jpg","","","","",""
"","","","","","image-keyboard-response","253","2.0.0","263862","pezx9btl65e","hedgehog","null","stimuli/bar_44.jpg","null","bar","G","non-repeat","null","225","stimuli/bar_44.jpg","","","","",""
"","","","","","image-keyboard-response","254","2.0.0","264869","pezx9btl65e","hedgehog","null","stimuli/bathroom_50.jpg","null","bathroom","H","non-repeat","null","226","stimuli/bathroom_50.jpg","","","","",""
"","","","","","image-keyboard-response","255","2.0.0","265886","pezx9btl65e","hedgehog","null","stimuli/bridge_16.jpg","null","bridge","I","non-repeat","null","227","stimuli/bridge_16.jpg","","","","",""
"","","","","","image-keyboard-response","256","2.0.0","266902","pezx9btl65e","hedgehog","null","stimuli/kitchen_43.jpg","null","kitchen","J","non-repeat","null","228","stimuli/kitchen_43.jpg","","","","",""
"","","","","","image-keyboard-response","257","2.0.0","267914","pezx9btl65e","hedgehog","null","stimuli/playground_37.jpg","null","playground","K","non-repeat","null","229","stimuli/playground_37.jpg","","","","",""
"","","","","","image-keyboard-response","258","2.0.0","268924","pezx9btl65e","hedgehog","null","stimuli/stream_35.jpg","null","stream","L","non-repeat","null","230","stimuli/stream_35.jpg","","","","",""
"","","","","","image-keyboard-response","259","2.0.0","269939","pezx9btl65e","hedgehog","null","stimuli/bar_44.jpg","null","bar","G","non-repeat","null","231","stimuli/bar_44.jpg","","","","",""
"","","","","","image-keyboard-response","260","2.0.0","270951","pezx9btl65e","hedgehog","null","stimuli/bathroom_50.jpg","null","bathroom","H","non-repeat","null","232","stimuli/bathroom_50.jpg","","","","",""
"","","","","","image-keyboard-response","261","2.0.0","271963","pezx9btl65e","hedgehog","null","stimuli/bridge_16.jpg","null","bridge","I","non-repeat","null","233","stimuli/bridge_16.jpg","","","","",""
"","","","","","image-keyboard-response","262","2.0.0","272976","pezx9btl65e","hedgehog","null","stimuli/kitchen_43.jpg","null","kitchen","J","non-repeat","null","234","stimuli/kitchen_43.jpg","","","","",""
"","","","","","image-keyboard-response","263","2.0.0","273990","pezx9btl65e","hedgehog","null","stimuli/playground_37.jpg","null","playground","K","non-repeat","null","235","stimuli/playground_37.jpg","","","","",""
"","","","","","image-keyboard-response","264","2.0.0","274993","pezx9btl65e","hedgehog","null","stimuli/stream_35.jpg","null","stream","L","non-repeat","null","236","stimuli/stream_35.jpg","","","","",""
"","","","","","image-keyboard-response","265","2.0.0","276002","pezx9btl65e","hedgehog","null","stimuli/field_26.jpg","null","field","D","non-repeat","null","237","stimuli/field_26.jpg","","","","",""
"","","","","","image-keyboard-response","266","2.0.0","277019","pezx9btl65e","hedgehog","null","stimuli/desert_46.jpg","null","desert","E","non-repeat","null","238","stimuli/desert_46.jpg","","","","",""
"","","","","","image-keyboard-response","267","2.0.0","278031","pezx9btl65e","hedgehog","null","stimuli/woods_16.jpg","null","woods","F","non-repeat","null","239","stimuli/woods_16.jpg","","","","",""
"","","","","","image-keyboard-response","268","2.0.0","279043","pezx9btl65e","hedgehog","null","stimuli/woods_16.jpg","null","woods","F","repeat"," ","239","","","","","",""
"","","","","","image-keyboard-response","269","2.0.0","280055","pezx9btl65e","hedgehog","363","stimuli/kitchen_43.jpg"," ","kitchen","J","non-repeat","null","240","stimuli/kitchen_43.jpg","","","","",""
"","","","","","image-keyboard-response","270","2.0.0","281068","pezx9btl65e","hedgehog","null","stimuli/playground_37.jpg","null","playground","K","non-repeat","null","241","stimuli/playground_37.jpg","","","","",""
"","","","","","image-keyboard-response","271","2.0.0","282081","pezx9btl65e","hedgehog","null","stimuli/stream_35.jpg","null","stream","L","non-repeat","null","242","stimuli/stream_35.jpg","","","","",""
"","","","","","image-keyboard-response","272","2.0.0","283093","pezx9btl65e","hedgehog","null","stimuli/street_31.jpg","null","street","A","non-repeat","null","243","stimuli/street_31.jpg","","","","",""
"","","","","","image-keyboard-response","273","2.0.0","284105","pezx9btl65e","hedgehog","null","stimuli/coast_63.jpg","null","coast","B","non-repeat","null","244","stimuli/coast_63.jpg","","","","",""
"","","","","","image-keyboard-response","274","2.0.0","285121","pezx9btl65e","hedgehog","null","stimuli/gym_18.jpg","null","gym","C","non-repeat","null","245","stimuli/gym_18.jpg","","","","",""
"","","","","","image-keyboard-response","275","2.0.0","286138","pezx9btl65e","hedgehog","null","stimuli/kitchen_43.jpg","null","kitchen","J","non-repeat","null","246","stimuli/kitchen_43.jpg","","","","",""
"","","","","","image-keyboard-response","276","2.0.0","287152","pezx9btl65e","hedgehog","900","stimuli/kitchen_43.jpg"," ","kitchen","J","repeat"," ","246","","","","","",""
"","","","","","image-keyboard-response","277","2.0.0","288165","pezx9btl65e","hedgehog","null","stimuli/playground_37.jpg","null","playground","K","non-repeat","null","247","stimuli/playground_37.jpg","","","","",""
"","","","","","image-keyboard-response","278","2.0.0","289177","pezx9btl65e","hedgehog","null","stimuli/stream_35.jpg","null","stream","L","non-repeat","null","248","stimuli/stream_35.jpg","","","","",""
"","","","","","image-keyboard-response","279","2.0.0","290189","pezx9btl65e","hedgehog","null","stimuli/stream_35.jpg","null","stream","L","repeat"," ","248","","","","","",""
"","","","","","image-keyboard-response","280","2.0.0","291199","pezx9btl65e","hedgehog","null","stimuli/field_26.jpg","null","field","D","non-repeat","null","249","stimuli/field_26.jpg","","","","",""
"","","","","","image-keyboard-response","281","2.0.0","292213","pezx9btl65e","hedgehog","null","stimuli/desert_46.jpg","null","desert","E","non-repeat","null","250","stimuli/desert_46.jpg","","","","",""
"","","","","","image-keyboard-response","282","2.0.0","293224","pezx9btl65e","hedgehog","null","stimuli/woods_16.jpg","null","woods","F","non-repeat","null","251","stimuli/woods_16.jpg","","","","",""
"","","","","","image-keyboard-response","283","2.0.0","294236","pezx9btl65e","hedgehog","null","stimuli/woods_16.jpg","null","woods","F","repeat"," ","251","","","","","",""
"","","","","","image-keyboard-response","284","2.0.0","295251","pezx9btl65e","hedgehog","null","stimuli/bar_44.jpg","null","bar","G","non-repeat","null","252","stimuli/bar_44.jpg","","","","",""
"","","","","","image-keyboard-response","285","2.0.0","296264","pezx9btl65e","hedgehog","null","stimuli/bar_44.jpg","null","bar","G","repeat"," ","252","","","","","",""
"","","","","","image-keyboard-response","286","2.0.0","297278","pezx9btl65e","hedgehog","759","stimuli/bathroom_50.jpg"," ","bathroom","H","non-repeat","null","253","stimuli/bathroom_50.jpg","","","","",""
"","","","","","image-keyboard-response","287","2.0.0","298293","pezx9btl65e","hedgehog","null","stimuli/bridge_16.jpg","null","bridge","I","non-repeat","null","254","stimuli/bridge_16.jpg","","","","",""
"","","","","","image-keyboard-response","288","2.0.0","299306","pezx9btl65e","hedgehog","null","stimuli/kitchen_43.jpg","null","kitchen","J","non-repeat","null","255","stimuli/kitchen_43.jpg","","","","",""
"","","","","","image-keyboard-response","289","2.0.0","300318","pezx9btl65e","hedgehog","484","stimuli/kitchen_43.jpg"," ","kitchen","J","repeat"," ","255","","","","","",""
"","","","","","image-keyboard-response","290","2.0.0","301331","pezx9btl65e","hedgehog","null","stimuli/playground_37.jpg","null","playground","K","non-repeat","null","256","stimuli/playground_37.jpg","","","","",""
"","","","","","image-keyboard-response","291","2.0.0","302346","pezx9btl65e","hedgehog","null","stimuli/stream_35.jpg","null","stream","L","non-repeat","null","257","stimuli/stream_35.jpg","","","","",""
"","","","","","image-keyboard-response","292","2.0.0","303358","pezx9btl65e","hedgehog","null","stimuli/street_31.jpg","null","street","A","non-repeat","null","258","stimuli/street_31.jpg","","","","",""
"","","","","","image-keyboard-response","293","2.0.0","304371","pezx9btl65e","hedgehog","null","stimuli/coast_63.jpg","null","coast","B","non-repeat","null","259","stimuli/coast_63.jpg","","","","",""
"","","","","","image-keyboard-response","294","2.0.0","305385","pezx9btl65e","hedgehog","null","stimuli/gym_18.jpg","null","gym","C","non-repeat","null","260","stimuli/gym_18.jpg","","","","",""
"","","","","","image-keyboard-response","295","2.0.0","306399","pezx9btl65e","hedgehog","null","stimuli/kitchen_43.jpg","null","kitchen","J","non-repeat","null","261","stimuli/kitchen_43.jpg","","","","",""
"","","","","","image-keyboard-response","296","2.0.0","307411","pezx9btl65e","hedgehog","528","stimuli/kitchen_43.jpg"," ","kitchen","J","repeat"," ","261","","","","","",""
"","","","","","image-keyboard-response","297","2.0.0","308423","pezx9btl65e","hedgehog","null","stimuli/playground_37.jpg","null","playground","K","non-repeat","null","262","stimuli/playground_37.jpg","","","","",""
"","","","","","image-keyboard-response","298","2.0.0","309440","pezx9btl65e","hedgehog","null","stimuli/stream_35.jpg","null","stream","L","non-repeat","null","263","stimuli/stream_35.jpg","","","","",""
"","","","","","image-keyboard-response","299","2.0.0","310455","pezx9btl65e","hedgehog","766","stimuli/stream_35.jpg"," ","stream","L","repeat"," ","263","","","","","",""
"","","","","","image-keyboard-response","300","2.0.0","311467","pezx9btl65e","hedgehog","null","stimuli/field_26.jpg","null","field","D","non-repeat","null","264","stimuli/field_26.jpg","","","","",""
"","","","","","image-keyboard-response","301","2.0.0","312482","pezx9btl65e","hedgehog","570","stimuli/field_26.jpg"," ","field","D","repeat"," ","264","","","","","",""
"","","","","","image-keyboard-response","302","2.0.0","313491","pezx9btl65e","hedgehog","null","stimuli/desert_46.jpg","null","desert","E","non-repeat","null","265","stimuli/desert_46.jpg","","","","",""
"","","","","","image-keyboard-response","303","2.0.0","314507","pezx9btl65e","hedgehog","null","stimuli/woods_16.jpg","null","woods","F","non-repeat","null","266","stimuli/woods_16.jpg","","","","",""
"","","","","","image-keyboard-response","304","2.0.0","315516","pezx9btl65e","hedgehog","467","stimuli/woods_16.jpg"," ","woods","F","repeat"," ","266","","","","","",""
"","","","","","image-keyboard-response","305","2.0.0","316530","pezx9btl65e","hedgehog","null","stimuli/kitchen_43.jpg","null","kitchen","J","non-repeat","null","267","stimuli/kitchen_43.jpg","","","","",""
"","","","","","image-keyboard-response","306","2.0.0","317544","pezx9btl65e","hedgehog","null","stimuli/playground_37.jpg","null","playground","K","non-repeat","null","268","stimuli/playground_37.jpg","","","","",""
"","","","","","image-keyboard-response","307","2.0.0","318560","pezx9btl65e","hedgehog","null","stimuli/stream_35.jpg","null","stream","L","non-repeat","null","269","stimuli/stream_35.jpg","","","","",""
"","","","","","image-keyboard-response","308","2.0.0","319577","pezx9btl65e","hedgehog","398","stimuli/stream_35.jpg"," ","stream","L","repeat"," ","269","","","","","",""
"","","","","","image-keyboard-response","309","2.0.0","320580","pezx9btl65e","hedgehog","null","stimuli/street_31.jpg","null","street","A","non-repeat","null","270","stimuli/street_31.jpg","","","","",""
"","","","","","image-keyboard-response","310","2.0.0","321595","pezx9btl65e","hedgehog","602","stimuli/street_31.jpg"," ","street","A","repeat"," ","270","","","","","",""
"","","","","","image-keyboard-response","311","2.0.0","322608","pezx9btl65e","hedgehog","null","stimuli/coast_63.jpg","null","coast","B","non-repeat","null","271","stimuli/coast_63.jpg","","","","",""
"","","","","","image-keyboard-response","312","2.0.0","323620","pezx9btl65e","hedgehog","null","stimuli/gym_18.jpg","null","gym","C","non-repeat","null","272","stimuli/gym_18.jpg","","","","",""
"","","","","","image-keyboard-response","313","2.0.0","324635","pezx9btl65e","hedgehog","null","stimuli/bar_44.jpg","null","bar","G","non-repeat","null","273","stimuli/bar_44.jpg","","","","",""
"","","","","","image-keyboard-response","314","2.0.0","325647","pezx9btl65e","hedgehog","null","stimuli/bathroom_50.jpg","null","bathroom","H","non-repeat","null","274","stimuli/bathroom_50.jpg","","","","",""
"","","","","","image-keyboard-response","315","2.0.0","326658","pezx9btl65e","hedgehog","null","stimuli/bridge_16.jpg","null","bridge","I","non-repeat","null","275","stimuli/bridge_16.jpg","","","","",""
"","","","","","image-keyboard-response","316","2.0.0","327672","pezx9btl65e","hedgehog","null","stimuli/street_31.jpg","null","street","A","non-repeat","null","276","stimuli/street_31.jpg","","","","",""
"","","","","","image-keyboard-response","317","2.0.0","328686","pezx9btl65e","hedgehog","null","stimuli/coast_63.jpg","null","coast","B","non-repeat","null","277","stimuli/coast_63.jpg","","","","",""
"","","","","","image-keyboard-response","318","2.0.0","329699","pezx9btl65e","hedgehog","null","stimuli/gym_18.jpg","null","gym","C","non-repeat","null","278","stimuli/gym_18.jpg","","","","",""
"","","","","","image-keyboard-response","319","2.0.0","330711","pezx9btl65e","hedgehog","null","stimuli/field_26.jpg","null","field","D","non-repeat","null","279","stimuli/field_26.jpg","","","","",""
"","","","","","image-keyboard-response","320","2.0.0","331713","pezx9btl65e","hedgehog","null","stimuli/desert_46.jpg","null","desert","E","non-repeat","null","280","stimuli/desert_46.jpg","","","","",""
"","","","","","image-keyboard-response","321","2.0.0","332725","pezx9btl65e","hedgehog","null","stimuli/woods_16.jpg","null","woods","F","non-repeat","null","281","stimuli/woods_16.jpg","","","","",""
"","","","","","image-keyboard-response","322","2.0.0","333737","pezx9btl65e","hedgehog","null","stimuli/street_31.jpg","null","street","A","non-repeat","null","282","stimuli/street_31.jpg","","","","",""
"","","","","","image-keyboard-response","323","2.0.0","334749","pezx9btl65e","hedgehog","null","stimuli/coast_63.jpg","null","coast","B","non-repeat","null","283","stimuli/coast_63.jpg","","","","",""
"","","","","","image-keyboard-response","324","2.0.0","335764","pezx9btl65e","hedgehog","null","stimuli/gym_18.jpg","null","gym","C","non-repeat","null","284","stimuli/gym_18.jpg","","","","",""
"","","","","","image-keyboard-response","325","2.0.0","336778","pezx9btl65e","hedgehog","null","stimuli/kitchen_43.jpg","null","kitchen","J","non-repeat","null","285","stimuli/kitchen_43.jpg","","","","",""
"","","","","","image-keyboard-response","326","2.0.0","337793","pezx9btl65e","hedgehog","532","stimuli/kitchen_43.jpg"," ","kitchen","J","repeat"," ","285","","","","","",""
"","","","","","image-keyboard-response","327","2.0.0","338803","pezx9btl65e","hedgehog","null","stimuli/playground_37.jpg","null","playground","K","non-repeat","null","286","stimuli/playground_37.jpg","","","","",""
"","","","","","image-keyboard-response","328","2.0.0","339816","pezx9btl65e","hedgehog","null","stimuli/stream_35.jpg","null","stream","L","non-repeat","null","287","stimuli/stream_35.jpg","","","","",""
"","","","","","image-keyboard-response","329","2.0.0","340831","pezx9btl65e","hedgehog","null","stimuli/street_31.jpg","null","street","A","non-repeat","null","288","stimuli/street_31.jpg","","","","",""
"","","","","","image-keyboard-response","330","2.0.0","341846","pezx9btl65e","hedgehog","null","stimuli/coast_63.jpg","null","coast","B","non-repeat","null","289","stimuli/coast_63.jpg","","","","",""
"","","","","","image-keyboard-response","331","2.0.0","342858","pezx9btl65e","hedgehog","null","stimuli/gym_18.jpg","null","gym","C","non-repeat","null","290","stimuli/gym_18.jpg","","","","",""
"","","","","","image-keyboard-response","332","2.0.0","343874","pezx9btl65e","hedgehog","null","stimuli/bar_44.jpg","null","bar","G","non-repeat","null","291","stimuli/bar_44.jpg","","","","",""
"","","","","","image-keyboard-response","333","2.0.0","344890","pezx9btl65e","hedgehog","null","stimuli/bathroom_50.jpg","null","bathroom","H","non-repeat","null","292","stimuli/bathroom_50.jpg","","","","",""
"","","","","","image-keyboard-response","334","2.0.0","345901","pezx9btl65e","hedgehog","null","stimuli/bridge_16.jpg","null","bridge","I","non-repeat","null","293","stimuli/bridge_16.jpg","","","","",""
"","","","","","image-keyboard-response","335","2.0.0","346916","pezx9btl65e","hedgehog","null","stimuli/kitchen_43.jpg","null","kitchen","J","non-repeat","null","294","stimuli/kitchen_43.jpg","","","","",""
"","","","","","image-keyboard-response","336","2.0.0","347918","pezx9btl65e","hedgehog","506","stimuli/kitchen_43.jpg"," ","kitchen","J","repeat"," ","294","","","","","",""
"","","","","","image-keyboard-response","337","2.0.0","348934","pezx9btl65e","hedgehog","null","stimuli/playground_37.jpg","null","playground","K","non-repeat","null","295","stimuli/playground_37.jpg","","","","",""
"","","","","","image-keyboard-response","338","2.0.0","349946","pezx9btl65e","hedgehog","null","stimuli/stream_35.jpg","null","stream","L","non-repeat","null","296","stimuli/stream_35.jpg","","","","",""
"","","","","","image-keyboard-response","339","2.0.0","350960","pezx9btl65e","hedgehog","null","stimuli/street_31.jpg","null","street","A","non-repeat","null","297","stimuli/street_31.jpg","","","","",""
"","","","","","image-keyboard-response","340","2.0.0","351970","pezx9btl65e","hedgehog","654","stimuli/street_31.jpg"," ","street","A","repeat"," ","297","","","","","",""
"","","","","","image-keyboard-response","341","2.0.0","352983","pezx9btl65e","hedgehog","null","stimuli/coast_63.jpg","null","coast","B","non-repeat","null","298","stimuli/coast_63.jpg","","","","",""
"","","","","","image-keyboard-response","342","2.0.0","353997","pezx9btl65e","hedgehog","null","stimuli/gym_18.jpg","null","gym","C","non-repeat","null","299","stimuli/gym_18.jpg","","","","",""
"","","","","","image-keyboard-response","343","2.0.0","355013","pezx9btl65e","hedgehog","null","stimuli/bar_44.jpg","null","bar","G","non-repeat","null","300","stimuli/bar_44.jpg","","","","",""
"","","","","","image-keyboard-response","344","2.0.0","356026","pezx9btl65e","hedgehog","null","stimuli/bathroom_50.jpg","null","bathroom","H","non-repeat","null","301","stimuli/bathroom_50.jpg","","","","",""
"","","","","","image-keyboard-response","345","2.0.0","357035","pezx9btl65e","hedgehog","null","stimuli/bridge_16.jpg","null","bridge","I","non-repeat","null","302","stimuli/bridge_16.jpg","","","","",""
"","","","","","image-keyboard-response","346","2.0.0","358046","pezx9btl65e","hedgehog","null","stimuli/kitchen_43.jpg","null","kitchen","J","non-repeat","null","303","stimuli/kitchen_43.jpg","","","","",""
"","","","","","image-keyboard-response","347","2.0.0","359060","pezx9btl65e","hedgehog","529","stimuli/kitchen_43.jpg"," ","kitchen","J","repeat"," ","303","","","","","",""
"","","","","","image-keyboard-response","348","2.0.0","360077","pezx9btl65e","hedgehog","null","stimuli/playground_37.jpg","null","playground","K","non-repeat","null","304","stimuli/playground_37.jpg","","","","",""
"","","","","","image-keyboard-response","349","2.0.0","361085","pezx9btl65e","hedgehog","null","stimuli/stream_35.jpg","null","stream","L","non-repeat","null","305","stimuli/stream_35.jpg","","","","",""
"","","","","","image-keyboard-response","350","2.0.0","362101","pezx9btl65e","hedgehog","null","stimuli/field_26.jpg","null","field","D","non-repeat","null","306","stimuli/field_26.jpg","","","","",""
"","","","","","image-keyboard-response","351","2.0.0","363117","pezx9btl65e","hedgehog","null","stimuli/desert_46.jpg","null","desert","E","non-repeat","null","307","stimuli/desert_46.jpg","","","","",""
"","","","","","image-keyboard-response","352","2.0.0","364130","pezx9btl65e","hedgehog","null","stimuli/woods_16.jpg","null","woods","F","non-repeat","null","308","stimuli/woods_16.jpg","","","","",""
"","","","","","image-keyboard-response","353","2.0.0","365142","pezx9btl65e","hedgehog","null","stimuli/kitchen_43.jpg","null","kitchen","J","non-repeat","null","309","stimuli/kitchen_43.jpg","","","","",""
"","","","","","image-keyboard-response","354","2.0.0","366144","pezx9btl65e","hedgehog","null","stimuli/playground_37.jpg","null","playground","K","non-repeat","null","310","stimuli/playground_37.jpg","","","","",""
"","","","","","image-keyboard-response","355","2.0.0","367159","pezx9btl65e","hedgehog","null","stimuli/stream_35.jpg","null","stream","L","non-repeat","null","311","stimuli/stream_35.jpg","","","","",""
"","","","","","image-keyboard-response","356","2.0.0","368173","pezx9btl65e","hedgehog","null","stimuli/field_26.jpg","null","field","D","non-repeat","null","312","stimuli/field_26.jpg","","","","",""
"","","","","","image-keyboard-response","357","2.0.0","369188","pezx9btl65e","hedgehog","null","stimuli/desert_46.jpg","null","desert","E","non-repeat","null","313","stimuli/desert_46.jpg","","","","",""
"","","","","","image-keyboard-response","358","2.0.0","370204","pezx9btl65e","hedgehog","null","stimuli/woods_16.jpg","null","woods","F","non-repeat","null","314","stimuli/woods_16.jpg","","","","",""
"","","","","","image-keyboard-response","359","2.0.0","371213","pezx9btl65e","hedgehog","null","stimuli/kitchen_43.jpg","null","kitchen","J","non-repeat","null","315","stimuli/kitchen_43.jpg","","","","",""
"","","","","","image-keyboard-response","360","2.0.0","372224","pezx9btl65e","hedgehog","null","stimuli/playground_37.jpg","null","playground","K","non-repeat","null","316","stimuli/playground_37.jpg","","","","",""
"","","","","","image-keyboard-response","361","2.0.0","373240","pezx9btl65e","hedgehog","null","stimuli/stream_35.jpg","null","stream","L","non-repeat","null","317","stimuli/stream_35.jpg","","","","",""
"","","","","","image-keyboard-response","362","2.0.0","374252","pezx9btl65e","hedgehog","422","stimuli/stream_35.jpg"," ","stream","L","repeat"," ","317","","","","","",""
"","","","","","image-keyboard-response","363","2.0.0","375265","pezx9btl65e","hedgehog","null","stimuli/bar_44.jpg","null","bar","G","non-repeat","null","318","stimuli/bar_44.jpg","","","","",""
"","","","","","image-keyboard-response","364","2.0.0","376280","pezx9btl65e","hedgehog","null","stimuli/bathroom_50.jpg","null","bathroom","H","non-repeat","null","319","stimuli/bathroom_50.jpg","","","","",""
"","","","","","image-keyboard-response","365","2.0.0","377284","pezx9btl65e","hedgehog","null","stimuli/bridge_16.jpg","null","bridge","I","non-repeat","null","320","stimuli/bridge_16.jpg","","","","",""
"","","","","","image-keyboard-response","366","2.0.0","378297","pezx9btl65e","hedgehog","null","stimuli/field_26.jpg","null","field","D","non-repeat","null","321","stimuli/field_26.jpg","","","","",""
"","","","","","image-keyboard-response","367","2.0.0","379312","pezx9btl65e","hedgehog","null","stimuli/desert_46.jpg","null","desert","E","non-repeat","null","322","stimuli/desert_46.jpg","","","","",""
"","","","","","image-keyboard-response","368","2.0.0","380324","pezx9btl65e","hedgehog","null","stimuli/woods_16.jpg","null","woods","F","non-repeat","null","323","stimuli/woods_16.jpg","","","","",""
"","","","","","image-keyboard-response","369","2.0.0","381332","pezx9btl65e","hedgehog","451","stimuli/woods_16.jpg"," ","woods","F","repeat"," ","323","","","","","",""
"","","","","","image-keyboard-response","370","2.0.0","382347","pezx9btl65e","hedgehog","null","stimuli/kitchen_43.jpg","null","kitchen","J","non-repeat","null","324","stimuli/kitchen_43.jpg","","","","",""
"","","","","","image-keyboard-response","371","2.0.0","383362","pezx9btl65e","hedgehog","null","stimuli/playground_37.jpg","null","playground","K","non-repeat","null","325","stimuli/playground_37.jpg","","","","",""
"","","","","","image-keyboard-response","372","2.0.0","384375","pezx9btl65e","hedgehog","null","stimuli/stream_35.jpg","null","stream","L","non-repeat","null","326","stimuli/stream_35.jpg","","","","",""
"","","","","","image-keyboard-response","373","2.0.0","385384","pezx9btl65e","hedgehog","null","stimuli/street_31.jpg","null","street","A","non-repeat","null","327","stimuli/street_31.jpg","","","","",""
"","","","","","image-keyboard-response","374","2.0.0","386401","pezx9btl65e","hedgehog","null","stimuli/coast_63.jpg","null","coast","B","non-repeat","null","328","stimuli/coast_63.jpg","","","","",""
"","","","","","image-keyboard-response","375","2.0.0","387415","pezx9btl65e","hedgehog","null","stimuli/gym_18.jpg","null","gym","C","non-repeat","null","329","stimuli/gym_18.jpg","","","","",""
"","","","","","image-keyboard-response","376","2.0.0","388425","pezx9btl65e","hedgehog","848","stimuli/gym_18.jpg"," ","gym","C","repeat"," ","329","","","","","",""
"","","","","","image-keyboard-response","377","2.0.0","389437","pezx9btl65e","hedgehog","null","stimuli/kitchen_43.jpg","null","kitchen","J","non-repeat","null","330","stimuli/kitchen_43.jpg","","","","",""
"","","","","","image-keyboard-response","378","2.0.0","390446","pezx9btl65e","hedgehog","null","stimuli/playground_37.jpg","null","playground","K","non-repeat","null","331","stimuli/playground_37.jpg","","","","",""
"","","","","","image-keyboard-response","379","2.0.0","391457","pezx9btl65e","hedgehog","null","stimuli/stream_35.jpg","null","stream","L","non-repeat","null","332","stimuli/stream_35.jpg","","","","",""
"","","","","","image-keyboard-response","380","2.0.0","392472","pezx9btl65e","hedgehog","null","stimuli/bar_44.jpg","null","bar","G","non-repeat","null","333","stimuli/bar_44.jpg","","","","",""
"","","","","","image-keyboard-response","381","2.0.0","393485","pezx9btl65e","hedgehog","null","stimuli/bar_44.jpg","null","bar","G","repeat"," ","333","","","","","",""
"","","","","","image-keyboard-response","382","2.0.0","394498","pezx9btl65e","hedgehog","97","stimuli/bathroom_50.jpg"," ","bathroom","H","non-repeat","null","334","stimuli/bathroom_50.jpg","","","","",""
"","","","","","image-keyboard-response","383","2.0.0","395512","pezx9btl65e","hedgehog","null","stimuli/bridge_16.jpg","null","bridge","I","non-repeat","null","335","stimuli/bridge_16.jpg","","","","",""
"","","","","","image-keyboard-response","384","2.0.0","396526","pezx9btl65e","hedgehog","null","stimuli/field_26.jpg","null","field","D","non-repeat","null","336","stimuli/field_26.jpg","","","","",""
"","","","","","image-keyboard-response","385","2.0.0","397542","pezx9btl65e","hedgehog","null","stimuli/desert_46.jpg","null","desert","E","non-repeat","null","337","stimuli/desert_46.jpg","","","","",""
"","","","","","image-keyboard-response","386","2.0.0","398552","pezx9btl65e","hedgehog","null","stimuli/woods_16.jpg","null","woods","F","non-repeat","null","338","stimuli/woods_16.jpg","","","","",""
"","","","","","image-keyboard-response","387","2.0.0","399565","pezx9btl65e","hedgehog","null","stimuli/woods_16.jpg","null","woods","F","repeat"," ","338","","","","","",""
"","","","","","image-keyboard-response","388","2.0.0","400578","pezx9btl65e","hedgehog","null","stimuli/street_31.jpg","null","street","A","non-repeat","null","339","stimuli/street_31.jpg","","","","",""
"","","","","","image-keyboard-response","389","2.0.0","401590","pezx9btl65e","hedgehog","null","stimuli/coast_63.jpg","null","coast","B","non-repeat","null","340","stimuli/coast_63.jpg","","","","",""
"","","","","","image-keyboard-response","390","2.0.0","402602","pezx9btl65e","hedgehog","null","stimuli/gym_18.jpg","null","gym","C","non-repeat","null","341","stimuli/gym_18.jpg","","","","",""
"","","","","","image-keyboard-response","391","2.0.0","403617","pezx9btl65e","hedgehog","null","stimuli/bar_44.jpg","null","bar","G","non-repeat","null","342","stimuli/bar_44.jpg","","","","",""
"","","","","","image-keyboard-response","392","2.0.0","404632","pezx9btl65e","hedgehog","null","stimuli/bathroom_50.jpg","null","bathroom","H","non-repeat","null","343","stimuli/bathroom_50.jpg","","","","",""
"","","","","","image-keyboard-response","393","2.0.0","405646","pezx9btl65e","hedgehog","null","stimuli/bridge_16.jpg","null","bridge","I","non-repeat","null","344","stimuli/bridge_16.jpg","","","","",""
"","","","","","image-keyboard-response","394","2.0.0","406662","pezx9btl65e","hedgehog","712","stimuli/bridge_16.jpg"," ","bridge","I","repeat"," ","344","","","","","",""
"","","","","","image-keyboard-response","395","2.0.0","407671","pezx9btl65e","hedgehog","null","stimuli/field_26.jpg","null","field","D","non-repeat","null","345","stimuli/field_26.jpg","","","","",""
"","","","","","image-keyboard-response","396","2.0.0","408682","pezx9btl65e","hedgehog","null","stimuli/desert_46.jpg","null","desert","E","non-repeat","null","346","stimuli/desert_46.jpg","","","","",""
"","","","","","image-keyboard-response","397","2.0.0","409695","pezx9btl65e","hedgehog","null","stimuli/woods_16.jpg","null","woods","F","non-repeat","null","347","stimuli/woods_16.jpg","","","","",""
"","","","","","image-keyboard-response","398","2.0.0","410707","pezx9btl65e","hedgehog","null","stimuli/woods_16.jpg","null","woods","F","repeat"," ","347","","","","","",""
"","","","","","image-keyboard-response","399","2.0.0","411719","pezx9btl65e","hedgehog","null","stimuli/bar_44.jpg","null","bar","G","non-repeat","null","348","stimuli/bar_44.jpg","","","","",""
"","","","","","image-keyboard-response","400","2.0.0","412734","pezx9btl65e","hedgehog","744","stimuli/bar_44.jpg"," ","bar","G","repeat"," ","348","","","","","",""
"","","","","","image-keyboard-response","401","2.0.0","413747","pezx9btl65e","hedgehog","null","stimuli/bathroom_50.jpg","null","bathroom","H","non-repeat","null","349","stimuli/bathroom_50.jpg","","","","",""
"","","","","","image-keyboard-response","402","2.0.0","414761","pezx9btl65e","hedgehog","null","stimuli/bridge_16.jpg","null","bridge","I","non-repeat","null","350","stimuli/bridge_16.jpg","","","","",""
"","","","","","image-keyboard-response","403","2.0.0","415769","pezx9btl65e","hedgehog","716","stimuli/bridge_16.jpg"," ","bridge","I","repeat"," ","350","","","","","",""
"","","","","","image-keyboard-response","404","2.0.0","416777","pezx9btl65e","hedgehog","null","stimuli/street_31.jpg","null","street","A","non-repeat","null","351","stimuli/street_31.jpg","","","","",""
"","","","","","image-keyboard-response","405","2.0.0","417792","pezx9btl65e","hedgehog","null","stimuli/coast_63.jpg","null","coast","B","non-repeat","null","352","stimuli/coast_63.jpg","","","","",""
"","","","","","image-keyboard-response","406","2.0.0","418804","pezx9btl65e","hedgehog","null","stimuli/gym_18.jpg","null","gym","C","non-repeat","null","353","stimuli/gym_18.jpg","","","","",""
"","","","","","image-keyboard-response","407","2.0.0","419819","pezx9btl65e","hedgehog","null","stimuli/kitchen_43.jpg","null","kitchen","J","non-repeat","null","354","stimuli/kitchen_43.jpg","","","","",""
"","","","","","image-keyboard-response","408","2.0.0","420831","pezx9btl65e","hedgehog","619","stimuli/kitchen_43.jpg"," ","kitchen","J","repeat"," ","354","","","","","",""
"","","","","","image-keyboard-response","409","2.0.0","421841","pezx9btl65e","hedgehog","null","stimuli/playground_37.jpg","null","playground","K","non-repeat","null","355","stimuli/playground_37.jpg","","","","",""
"","","","","","image-keyboard-response","410","2.0.0","422856","pezx9btl65e","hedgehog","null","stimuli/stream_35.jpg","null","stream","L","non-repeat","null","356","stimuli/stream_35.jpg","","","","",""
"","","","","","image-keyboard-response","411","2.0.0","423865","pezx9btl65e","hedgehog","574","stimuli/stream_35.jpg"," ","stream","L","repeat"," ","356","","","","","",""
"","","","","","image-keyboard-response","412","2.0.0","424877","pezx9btl65e","hedgehog","null","stimuli/field_26.jpg","null","field","D","non-repeat","null","357","stimuli/field_26.jpg","","","","",""
"","","","","","image-keyboard-response","413","2.0.0","425892","pezx9btl65e","hedgehog","null","stimuli/desert_46.jpg","null","desert","E","non-repeat","null","358","stimuli/desert_46.jpg","","","","",""
"","","","","","image-keyboard-response","414","2.0.0","426908","pezx9btl65e","hedgehog","null","stimuli/woods_16.jpg","null","woods","F","non-repeat","null","359","stimuli/woods_16.jpg","","","","",""
"","","","","","image-keyboard-response","415","2.0.0","427920","pezx9btl65e","hedgehog","null","stimuli/street_31.jpg","null","street","A","non-repeat","null","360","stimuli/street_31.jpg","","","","",""
"","","","","","image-keyboard-response","416","2.0.0","428934","pezx9btl65e","hedgehog","null","stimuli/coast_63.jpg","null","coast","B","non-repeat","null","361","stimuli/coast_63.jpg","","","","",""
"","","","","","image-keyboard-response","417","2.0.0","429942","pezx9btl65e","hedgehog","null","stimuli/gym_18.jpg","null","gym","C","non-repeat","null","362","stimuli/gym_18.jpg","","","","",""
"","","","","","image-keyboard-response","418","2.0.0","430953","pezx9btl65e","hedgehog","null","stimuli/bar_44.jpg","null","bar","G","non-repeat","null","363","stimuli/bar_44.jpg","","","","",""
"","","","","","image-keyboard-response","419","2.0.0","431967","pezx9btl65e","hedgehog","null","stimuli/bathroom_50.jpg","null","bathroom","H","non-repeat","null","364","stimuli/bathroom_50.jpg","","","","",""
"","","","","","image-keyboard-response","420","2.0.0","432979","pezx9btl65e","hedgehog","null","stimuli/bridge_16.jpg","null","bridge","I","non-repeat","null","365","stimuli/bridge_16.jpg","","","","",""
"","","","","","image-keyboard-response","421","2.0.0","433994","pezx9btl65e","hedgehog","null","stimuli/field_26.jpg","null","field","D","non-repeat","null","366","stimuli/field_26.jpg","","","","",""
"","","","","","image-keyboard-response","422","2.0.0","435007","pezx9btl65e","hedgehog","null","stimuli/desert_46.jpg","null","desert","E","non-repeat","null","367","stimuli/desert_46.jpg","","","","",""
"","","","","","image-keyboard-response","423","2.0.0","436021","pezx9btl65e","hedgehog","null","stimuli/woods_16.jpg","null","woods","F","non-repeat","null","368","stimuli/woods_16.jpg","","","","",""
"","","","","","image-keyboard-response","424","2.0.0","437037","pezx9btl65e","hedgehog","null","stimuli/street_31.jpg","null","street","A","non-repeat","null","369","stimuli/street_31.jpg","","","","",""
"","","","","","image-keyboard-response","425","2.0.0","438048","pezx9btl65e","hedgehog","null","stimuli/coast_63.jpg","null","coast","B","non-repeat","null","370","stimuli/coast_63.jpg","","","","",""
"","","","","","image-keyboard-response","426","2.0.0","439058","pezx9btl65e","hedgehog","null","stimuli/gym_18.jpg","null","gym","C","non-repeat","null","371","stimuli/gym_18.jpg","","","","",""
"","","","","","image-keyboard-response","427","2.0.0","440073","pezx9btl65e","hedgehog","null","stimuli/kitchen_43.jpg","null","kitchen","J","non-repeat","null","372","stimuli/kitchen_43.jpg","","","","",""
"","","","","","image-keyboard-response","428","2.0.0","441089","pezx9btl65e","hedgehog","710","stimuli/kitchen_43.jpg"," ","kitchen","J","repeat"," ","372","","","","","",""
"","","","","","image-keyboard-response","429","2.0.0","442100","pezx9btl65e","hedgehog","null","stimuli/playground_37.jpg","null","playground","K","non-repeat","null","373","stimuli/playground_37.jpg","","","","",""
"","","","","","image-keyboard-response","430","2.0.0","443110","pezx9btl65e","hedgehog","null","stimuli/stream_35.jpg","null","stream","L","non-repeat","null","374","stimuli/stream_35.jpg","","","","",""
"","","","","","image-keyboard-response","431","2.0.0","444122","pezx9btl65e","hedgehog","null","stimuli/field_26.jpg","null","field","D","non-repeat","null","375","stimuli/field_26.jpg","","","","",""
"","","","","","image-keyboard-response","432","2.0.0","445128","pezx9btl65e","hedgehog","917","stimuli/field_26.jpg"," ","field","D","repeat"," ","375","","","","","",""
"","","","","","image-keyboard-response","433","2.0.0","446138","pezx9btl65e","hedgehog","null","stimuli/desert_46.jpg","null","desert","E","non-repeat","null","376","stimuli/desert_46.jpg","","","","",""
"","","","","","image-keyboard-response","434","2.0.0","447150","pezx9btl65e","hedgehog","null","stimuli/woods_16.jpg","null","woods","F","non-repeat","null","377","stimuli/woods_16.jpg","","","","",""
"","","","","","image-keyboard-response","435","2.0.0","448163","pezx9btl65e","hedgehog","768","stimuli/woods_16.jpg"," ","woods","F","repeat"," ","377","","","","","",""
"","","","","","image-keyboard-response","436","2.0.0","449175","pezx9btl65e","hedgehog","null","stimuli/street_31.jpg","null","street","A","non-repeat","null","378","stimuli/street_31.jpg","","","","",""
"","","","","","image-keyboard-response","437","2.0.0","450189","pezx9btl65e","hedgehog","null","stimuli/coast_63.jpg","null","coast","B","non-repeat","null","379","stimuli/coast_63.jpg","","","","",""
"","","","","","image-keyboard-response","438","2.0.0","451203","pezx9btl65e","hedgehog","null","stimuli/gym_18.jpg","null","gym","C","non-repeat","null","380","stimuli/gym_18.jpg","","","","",""
"","","","","","image-keyboard-response","439","2.0.0","452220","pezx9btl65e","hedgehog","null","stimuli/bar_44.jpg","null","bar","G","non-repeat","null","381","stimuli/bar_44.jpg","","","","",""
"","","","","","image-keyboard-response","440","2.0.0","453233","pezx9btl65e","hedgehog","null","stimuli/bathroom_50.jpg","null","bathroom","H","non-repeat","null","382","stimuli/bathroom_50.jpg","","","","",""
"","","","","","image-keyboard-response","441","2.0.0","454236","pezx9btl65e","hedgehog","null","stimuli/bridge_16.jpg","null","bridge","I","non-repeat","null","383","stimuli/bridge_16.jpg","","","","",""
"","","","","","image-keyboard-response","442","2.0.0","455248","pezx9btl65e","hedgehog","null","stimuli/street_31.jpg","null","street","A","non-repeat","null","384","stimuli/street_31.jpg","","","","",""
"","","","","","image-keyboard-response","443","2.0.0","456260","pezx9btl65e","hedgehog","582","stimuli/street_31.jpg"," ","street","A","repeat"," ","384","","","","","",""
"","","","","","image-keyboard-response","444","2.0.0","457268","pezx9btl65e","hedgehog","null","stimuli/coast_63.jpg","null","coast","B","non-repeat","null","385","stimuli/coast_63.jpg","","","","",""
"","","","","","image-keyboard-response","445","2.0.0","458277","pezx9btl65e","hedgehog","null","stimuli/gym_18.jpg","null","gym","C","non-repeat","null","386","stimuli/gym_18.jpg","","","","",""
"","","","","","html-keyboard-response","446","2.0.0","468921","pezx9btl65e","hedgehog","10642","
    <div style='width:900px;margin: auto;'><p>In the next part of the experiment, we want to see how well you learned the structure in the stream of images.</p>
    <p>On each trial, you will see two sequences of three images, sequence 1 and 2. We will ask you to indicate which sequence was more familiar based on the first part of the experiment.</p>
    <p>Press 1 if the first sequence (sequence 1) felt more familiar. Press 2 if the second sequence (sequence 2) felt more familiar.</p>
    <p>Press any key to begin.</p></div>"," ","","","","","","","","","","",""
"","","","","","html-keyboard-response","447","2.0.0","469932","pezx9btl65e","hedgehog","null","<p>Sequence 1</p>","null","","","","","","","","","","",""
"","","","","","image-keyboard-response","448","2.0.0","470946","pezx9btl65e","hedgehog","null","stimuli/bar_44.jpg","null","","","","","","","","","","",""
"","","","","","image-keyboard-response","449","2.0.0","471961","pezx9btl65e","hedgehog","null","stimuli/playground_37.jpg","null","","","","","","","","","","",""
"","","","","","image-keyboard-response","450","2.0.0","472978","pezx9btl65e","hedgehog","null","stimuli/gym_18.jpg","null","","","","","","","","","","",""
"","","","","","html-keyboard-response","451","2.0.0","473995","pezx9btl65e","hedgehog","null","<p></p>","null","","","","","","","","","","",""
"","","","","","html-keyboard-response","452","2.0.0","475008","pezx9btl65e","hedgehog","null","<p>Sequence 2</p>","null","","","","","","","","","","",""
"","","","","","image-keyboard-response","453","2.0.0","476018","pezx9btl65e","hedgehog","null","stimuli/street_31.jpg","null","","","","","","","","","","",""
"","","","","","image-keyboard-response","454","2.0.0","477028","pezx9btl65e","hedgehog","null","stimuli/coast_63.jpg","null","","","","","","","","","","",""
"","","","","","image-keyboard-response","455","2.0.0","478044","pezx9btl65e","hedgehog","null","stimuli/gym_18.jpg","null","","","","","","","","","","",""
"","","","","","html-keyboard-response","456","2.0.0","478960","pezx9btl65e","hedgehog","915","<p>Press '1' if the first sequence was familiar, '2' if the second was.</p>","2","","","2","","","","[""A"",""B"",""C""]","[""G"",""K"",""C""]","true","[""<p>Sequence 1</p>"",""stimuli/bar_44.jpg"",""stimuli/playground_37.jpg"",""stimuli/gym_18.jpg""]","[""<p>Sequence 2</p>"",""stimuli/street_31.jpg"",""stimuli/coast_63.jpg"",""stimuli/gym_18.jpg""]"
"","","","","","html-keyboard-response","457","2.0.0","479962","pezx9btl65e","hedgehog","null","<p>Sequence 1</p>","null","","","","","","","","","","",""
"","","","","","image-keyboard-response","458","2.0.0","480976","pezx9btl65e","hedgehog","null","stimuli/bar_44.jpg","null","","","","","","","","","","",""
"","","","","","image-keyboard-response","459","2.0.0","481984","pezx9btl65e","hedgehog","null","stimuli/bathroom_50.jpg","null","","","","","","","","","","",""
"","","","","","image-keyboard-response","460","2.0.0","482998","pezx9btl65e","hedgehog","null","stimuli/bridge_16.jpg","null","","","","","","","","","","",""
"","","","","","html-keyboard-response","461","2.0.0","484001","pezx9btl65e","hedgehog","null","<p></p>","null","","","","","","","","","","",""
"","","","","","html-keyboard-response","462","2.0.0","485007","pezx9btl65e","hedgehog","null","<p>Sequence 2</p>","null","","","","","","","","","","",""
"","","","","","image-keyboard-response","463","2.0.0","486020","pezx9btl65e","hedgehog","null","stimuli/street_31.jpg","null","","","","","","","","","","",""
"","","","","","image-keyboard-response","464","2.0.0","487035","pezx9btl65e","hedgehog","null","stimuli/desert_46.jpg","null","","","","","","","","","","",""
"","","","","","image-keyboard-response","465","2.0.0","488048","pezx9btl65e","hedgehog","null","stimuli/bridge_16.jpg","null","","","","","","","","","","",""
"","","","","","html-keyboard-response","466","2.0.0","488336","pezx9btl65e","hedgehog","287","<p>Press '1' if the first sequence was familiar, '2' if the second was.</p>","1","","","1","","","","[""G"",""H"",""I""]","[""A"",""E"",""I""]","true","[""<p>Sequence 1</p>"",""stimuli/bar_44.jpg"",""stimuli/bathroom_50.jpg"",""stimuli/bridge_16.jpg""]","[""<p>Sequence 2</p>"",""stimuli/street_31.jpg"",""stimuli/desert_46.jpg"",""stimuli/bridge_16.jpg""]"
"","","","","","html-keyboard-response","467","2.0.0","489341","pezx9btl65e","hedgehog","null","<p>Sequence 1</p>","null","","","","","","","","","","",""
"","","","","","image-keyboard-response","468","2.0.0","490352","pezx9btl65e","hedgehog","null","stimuli/field_26.jpg","null","","","","","","","","","","",""
"","","","","","image-keyboard-response","469","2.0.0","491359","pezx9btl65e","hedgehog","null","stimuli/desert_46.jpg","null","","","","","","","","","","",""
"","","","","","image-keyboard-response","470","2.0.0","492374","pezx9btl65e","hedgehog","null","stimuli/woods_16.jpg","null","","","","","","","","","","",""
"","","","","","html-keyboard-response","471","2.0.0","493386","pezx9btl65e","hedgehog","null","<p></p>","null","","","","","","","","","","",""
"","","","","","html-keyboard-response","472","2.0.0","494401","pezx9btl65e","hedgehog","null","<p>Sequence 2</p>","null","","","","","","","","","","",""
"","","","","","image-keyboard-response","473","2.0.0","495413","pezx9btl65e","hedgehog","null","stimuli/kitchen_43.jpg","null","","","","","","","","","","",""
"","","","","","image-keyboard-response","474","2.0.0","496427","pezx9btl65e","hedgehog","null","stimuli/coast_63.jpg","null","","","","","","","","","","",""
"","","","","","image-keyboard-response","475","2.0.0","497434","pezx9btl65e","hedgehog","null","stimuli/woods_16.jpg","null","","","","","","","","","","",""
"","","","","","html-keyboard-response","476","2.0.0","498160","pezx9btl65e","hedgehog","726","<p>Press '1' if the first sequence was familiar, '2' if the second was.</p>","1","","","1","","","","[""D"",""E"",""F""]","[""J"",""B"",""F""]","true","[""<p>Sequence 1</p>"",""stimuli/field_26.jpg"",""stimuli/desert_46.jpg"",""stimuli/woods_16.jpg""]","[""<p>Sequence 2</p>"",""stimuli/kitchen_43.jpg"",""stimuli/coast_63.jpg"",""stimuli/woods_16.jpg""]"
"","","","","","html-keyboard-response","477","2.0.0","499170","pezx9btl65e","hedgehog","null","<p>Sequence 1</p>","null","","","","","","","","","","",""
"","","","","","image-keyboard-response","478","2.0.0","500174","pezx9btl65e","hedgehog","null","stimuli/street_31.jpg","null","","","","","","","","","","",""
"","","","","","image-keyboard-response","479","2.0.0","501178","pezx9btl65e","hedgehog","null","stimuli/coast_63.jpg","null","","","","","","","","","","",""
"","","","","","image-keyboard-response","480","2.0.0","502193","pezx9btl65e","hedgehog","null","stimuli/gym_18.jpg","null","","","","","","","","","","",""
"","","","","","html-keyboard-response","481","2.0.0","503209","pezx9btl65e","hedgehog","null","<p></p>","null","","","","","","","","","","",""
"","","","","","html-keyboard-response","482","2.0.0","504225","pezx9btl65e","hedgehog","null","<p>Sequence 2</p>","null","","","","","","","","","","",""
"","","","","","image-keyboard-response","483","2.0.0","505239","pezx9btl65e","hedgehog","null","stimuli/field_26.jpg","null","","","","","","","","","","",""
"","","","","","image-keyboard-response","484","2.0.0","506251","pezx9btl65e","hedgehog","null","stimuli/bathroom_50.jpg","null","","","","","","","","","","",""
"","","","","","image-keyboard-response","485","2.0.0","507264","pezx9btl65e","hedgehog","null","stimuli/stream_35.jpg","null","","","","","","","","","","",""
"","","","","","html-keyboard-response","486","2.0.0","507616","pezx9btl65e","hedgehog","351","<p>Press '1' if the first sequence was familiar, '2' if the second was.</p>","1","","","1","","","","[""A"",""B"",""C""]","[""D"",""H"",""L""]","true","[""<p>Sequence 1</p>"",""stimuli/street_31.jpg"",""stimuli/coast_63.jpg"",""stimuli/gym_18.jpg""]","[""<p>Sequence 2</p>"",""stimuli/field_26.jpg"",""stimuli/bathroom_50.jpg"",""stimuli/stream_35.jpg""]"
"","","","","","html-keyboard-response","487","2.0.0","508618","pezx9btl65e","hedgehog","null","<p>Sequence 1</p>","null","","","","","","","","","","",""
"","","","","","image-keyboard-response","488","2.0.0","509631","pezx9btl65e","hedgehog","null","stimuli/street_31.jpg","null","","","","","","","","","","",""
"","","","","","image-keyboard-response","489","2.0.0","510643","pezx9btl65e","hedgehog","null","stimuli/desert_46.jpg","null","","","","","","","","","","",""
"","","","","","image-keyboard-response","490","2.0.0","511656","pezx9btl65e","hedgehog","null","stimuli/bridge_16.jpg","null","","","","","","","","","","",""
"","","","","","html-keyboard-response","491","2.0.0","512670","pezx9btl65e","hedgehog","null","<p></p>","null","","","","","","","","","","",""
"","","","","","html-keyboard-response","492","2.0.0","513686","pezx9btl65e","hedgehog","null","<p>Sequence 2</p>","null","","","","","","","","","","",""
"","","","","","image-keyboard-response","493","2.0.0","514702","pezx9btl65e","hedgehog","null","stimuli/field_26.jpg","null","","","","","","","","","","",""
"","","","","","image-keyboard-response","494","2.0.0","515716","pezx9btl65e","hedgehog","null","stimuli/desert_46.jpg","null","","","","","","","","","","",""
"","","","","","image-keyboard-response","495","2.0.0","516729","pezx9btl65e","hedgehog","null","stimuli/woods_16.jpg","null","","","","","","","","","","",""
"","","","","","html-keyboard-response","496","2.0.0","516935","pezx9btl65e","hedgehog","205","<p>Press '1' if the first sequence was familiar, '2' if the second was.</p>","2","","","2","","","","[""D"",""E"",""F""]","[""A"",""E"",""I""]","true","[""<p>Sequence 1</p>"",""stimuli/street_31.jpg"",""stimuli/desert_46.jpg"",""stimuli/bridge_16.jpg""]","[""<p>Sequence 2</p>"",""stimuli/field_26.jpg"",""stimuli/desert_46.jpg"",""stimuli/woods_16.jpg""]"
