"success","timeout","failed_images","failed_audio","failed_video","trial_type","trial_index","plugin_version","time_elapsed","random_id","participant","rt","stimulus","response","category","letter","correct_response","correct_response_key","trial_counter","current_image","test_triplet","foil_triplet","correct","firstSequencePaths","secondSequencePaths"
"true","false","[]","[]","[]","preload","0","2.0.0","430","pgo4a3w2130","tiger","","","","","","","","","","","","","",""
"true","","","","","fullscreen","1","null","3155","pgo4a3w2130","tiger","1716","","","","","","","","","","","","",""
"","","","","","html-keyboard-response","2","2.0.0","4373","pgo4a3w2130","tiger","1216","Welcome to the experiment. Press any key to begin."," ","","","","","","","","","","",""
"","","","","","survey-text","3","2.0.0","6814","pgo4a3w2130","tiger","2437","","{""participant_id"":""tiger""}","","","","","","","","","","",""
"","","","","","html-keyboard-response","4","2.0.0","9185","pgo4a3w2130","tiger","2370","
  <p>For this trial, you will see a series of images.</p>
  <p><b>Press the spacebar whenever you see the same image appear twice in a row.</b></p>
  <p>In other words, whenever the same image repeats back to back, press the spacebar.</p>
  <p>Press any key to begin.</p>","Enter","","","","","","","","","","",""
"","","","","","image-keyboard-response","5","2.0.0","10190","pgo4a3w2130","tiger","null","stimuli/bathroom_11.jpg","null","bathroom","G","non-repeat","null","0","stimuli/bathroom_11.jpg","","","","",""
"","","","","","image-keyboard-response","6","2.0.0","11203","pgo4a3w2130","tiger","null","stimuli/kitchen_15.jpg","null","kitchen","H","non-repeat","null","1","stimuli/kitchen_15.jpg","","","","",""
"","","","","","image-keyboard-response","7","2.0.0","12215","pgo4a3w2130","tiger","null","stimuli/bar_67.jpg","null","bar","I","non-repeat","null","2","stimuli/bar_67.jpg","","","","",""
"","","","","","image-keyboard-response","8","2.0.0","13226","pgo4a3w2130","tiger","520","stimuli/bar_67.jpg"," ","bar","I","repeat"," ","2","","","","","",""
"","","","","","image-keyboard-response","9","2.0.0","14237","pgo4a3w2130","tiger","null","stimuli/stream_46.jpg","null","stream","D","non-repeat","null","3","stimuli/stream_46.jpg","","","","",""
"","","","","","image-keyboard-response","10","2.0.0","15248","pgo4a3w2130","tiger","null","stimuli/field_54.jpg","null","field","E","non-repeat","null","4","stimuli/field_54.jpg","","","","",""
"","","","","","image-keyboard-response","11","2.0.0","16257","pgo4a3w2130","tiger","null","stimuli/woods_58.jpg","null","woods","F","non-repeat","null","5","stimuli/woods_58.jpg","","","","",""
"","","","","","image-keyboard-response","12","2.0.0","17267","pgo4a3w2130","tiger","null","stimuli/bridge_36.jpg","null","bridge","A","non-repeat","null","6","stimuli/bridge_36.jpg","","","","",""
"","","","","","image-keyboard-response","13","2.0.0","18277","pgo4a3w2130","tiger","301","stimuli/bridge_36.jpg"," ","bridge","A","repeat"," ","6","","","","","",""
"","","","","","image-keyboard-response","14","2.0.0","19284","pgo4a3w2130","tiger","null","stimuli/street_58.jpg","null","street","B","non-repeat","null","7","stimuli/street_58.jpg","","","","",""
"","","","","","image-keyboard-response","15","2.0.0","20295","pgo4a3w2130","tiger","null","stimuli/gym_53.jpg","null","gym","C","non-repeat","null","8","stimuli/gym_53.jpg","","","","",""
"","","","","","image-keyboard-response","16","2.0.0","21310","pgo4a3w2130","tiger","null","stimuli/stream_46.jpg","null","stream","D","non-repeat","null","9","stimuli/stream_46.jpg","","","","",""
"","","","","","image-keyboard-response","17","2.0.0","22317","pgo4a3w2130","tiger","null","stimuli/field_54.jpg","null","field","E","non-repeat","null","10","stimuli/field_54.jpg","","","","",""
"","","","","","image-keyboard-response","18","2.0.0","23328","pgo4a3w2130","tiger","null","stimuli/woods_58.jpg","null","woods","F","non-repeat","null","11","stimuli/woods_58.jpg","","","","",""
"","","","","","image-keyboard-response","19","2.0.0","24342","pgo4a3w2130","tiger","241","stimuli/playground_6.jpg"," ","playground","J","non-repeat","null","12","stimuli/playground_6.jpg","","","","",""
"","","","","","image-keyboard-response","20","2.0.0","25353","pgo4a3w2130","tiger","null","stimuli/desert_17.jpg","null","desert","K","non-repeat","null","13","stimuli/desert_17.jpg","","","","",""
"","","","","","image-keyboard-response","21","2.0.0","26361","pgo4a3w2130","tiger","278","stimuli/coast_57.jpg"," ","coast","L","non-repeat","null","14","stimuli/coast_57.jpg","","","","",""
"","","","","","image-keyboard-response","22","2.0.0","27373","pgo4a3w2130","tiger","null","stimuli/bridge_36.jpg","null","bridge","A","non-repeat","null","15","stimuli/bridge_36.jpg","","","","",""
"","","","","","image-keyboard-response","23","2.0.0","28383","pgo4a3w2130","tiger","null","stimuli/street_58.jpg","null","street","B","non-repeat","null","16","stimuli/street_58.jpg","","","","",""
"","","","","","image-keyboard-response","24","2.0.0","29392","pgo4a3w2130","tiger","null","stimuli/gym_53.jpg","null","gym","C","non-repeat","null","17","stimuli/gym_53.jpg","","","","",""
"","","","","","image-keyboard-response","25","2.0.0","30404","pgo4a3w2130","tiger","null","stimuli/bathroom_11.jpg","null","bathroom","G","non-repeat","null","18","stimuli/bathroom_11.jpg","","","","",""
"","","","","","image-keyboard-response","26","2.0.0","31416","pgo4a3w2130","tiger","null","stimuli/kitchen_15.jpg","null","kitchen","H","non-repeat","null","19","stimuli/kitchen_15.jpg","","","","",""
"","","","","","image-keyboard-response","27","2.0.0","32429","pgo4a3w2130","tiger","null","stimuli/bar_67.jpg","null","bar","I","non-repeat","null","20","stimuli/bar_67.jpg","","","","",""
"","","","","","image-keyboard-response","28","2.0.0","33440","pgo4a3w2130","tiger","423","stimuli/bar_67.jpg"," ","bar","I","repeat"," ","20","","","","","",""
"","","","","","image-keyboard-response","29","2.0.0","34452","pgo4a3w2130","tiger","null","stimuli/playground_6.jpg","null","playground","J","non-repeat","null","21","stimuli/playground_6.jpg","","","","",""
"","","","","","image-keyboard-response","30","2.0.0","35466","pgo4a3w2130","tiger","361","stimuli/playground_6.jpg"," ","playground","J","repeat"," ","21","","","","","",""
"","","","","","image-keyboard-response","31","2.0.0","36474","pgo4a3w2130","tiger","null","stimuli/desert_17.jpg","null","desert","K","non-repeat","null","22","stimuli/desert_17.jpg","","","","",""
"","","","","","image-keyboard-response","32","2.0.0","37485","pgo4a3w2130","tiger","null","stimuli/coast_57.jpg","null","coast","L","non-repeat","null","23","stimuli/coast_57.jpg","","","","",""
"","","","","","image-keyboard-response","33","2.0.0","38496","pgo4a3w2130","tiger","null","stimuli/bridge_36.jpg","null","bridge","A","non-repeat","null","24","stimuli/bridge_36.jpg","","","","",""
"","","","","","image-keyboard-response","34","2.0.0","39509","pgo4a3w2130","tiger","null","stimuli/street_58.jpg","null","street","B","non-repeat","null","25","stimuli/street_58.jpg","","","","",""
"","","","","","image-keyboard-response","35","2.0.0","40519","pgo4a3w2130","tiger","null","stimuli/gym_53.jpg","null","gym","C","non-repeat","null","26","stimuli/gym_53.jpg","","","","",""
"","","","","","image-keyboard-response","36","2.0.0","41532","pgo4a3w2130","tiger","null","stimuli/stream_46.jpg","null","stream","D","non-repeat","null","27","stimuli/stream_46.jpg","","","","",""
"","","","","","image-keyboard-response","37","2.0.0","42538","pgo4a3w2130","tiger","null","stimuli/field_54.jpg","null","field","E","non-repeat","null","28","stimuli/field_54.jpg","","","","",""
"","","","","","image-keyboard-response","38","2.0.0","43547","pgo4a3w2130","tiger","null","stimuli/woods_58.jpg","null","woods","F","non-repeat","null","29","stimuli/woods_58.jpg","","","","",""
"","","","","","image-keyboard-response","39","2.0.0","44562","pgo4a3w2130","tiger","354","stimuli/woods_58.jpg"," ","woods","F","repeat"," ","29","","","","","",""
"","","","","","image-keyboard-response","40","2.0.0","45575","pgo4a3w2130","tiger","null","stimuli/playground_6.jpg","null","playground","J","non-repeat","null","30","stimuli/playground_6.jpg","","","","",""
"","","","","","image-keyboard-response","41","2.0.0","46589","pgo4a3w2130","tiger","260","stimuli/playground_6.jpg"," ","playground","J","repeat"," ","30","","","","","",""
"","","","","","image-keyboard-response","42","2.0.0","47598","pgo4a3w2130","tiger","null","stimuli/desert_17.jpg","null","desert","K","non-repeat","null","31","stimuli/desert_17.jpg","","","","",""
"","","","","","image-keyboard-response","43","2.0.0","48612","pgo4a3w2130","tiger","null","stimuli/coast_57.jpg","null","coast","L","non-repeat","null","32","stimuli/coast_57.jpg","","","","",""
"","","","","","image-keyboard-response","44","2.0.0","49623","pgo4a3w2130","tiger","null","stimuli/bathroom_11.jpg","null","bathroom","G","non-repeat","null","33","stimuli/bathroom_11.jpg","","","","",""
"","","","","","image-keyboard-response","45","2.0.0","50635","pgo4a3w2130","tiger","null","stimuli/bathroom_11.jpg","null","bathroom","G","repeat"," ","33","","","","","",""
"","","","","","image-keyboard-response","46","2.0.0","51646","pgo4a3w2130","tiger","null","stimuli/kitchen_15.jpg","null","kitchen","H","non-repeat","null","34","stimuli/kitchen_15.jpg","","","","",""
"","","","","","image-keyboard-response","47","2.0.0","52659","pgo4a3w2130","tiger","null","stimuli/bar_67.jpg","null","bar","I","non-repeat","null","35","stimuli/bar_67.jpg","","","","",""
"","","","","","image-keyboard-response","48","2.0.0","53674","pgo4a3w2130","tiger","null","stimuli/stream_46.jpg","null","stream","D","non-repeat","null","36","stimuli/stream_46.jpg","","","","",""
"","","","","","image-keyboard-response","49","2.0.0","54687","pgo4a3w2130","tiger","null","stimuli/field_54.jpg","null","field","E","non-repeat","null","37","stimuli/field_54.jpg","","","","",""
"","","","","","image-keyboard-response","50","2.0.0","55698","pgo4a3w2130","tiger","null","stimuli/woods_58.jpg","null","woods","F","non-repeat","null","38","stimuli/woods_58.jpg","","","","",""
"","","","","","image-keyboard-response","51","2.0.0","56711","pgo4a3w2130","tiger","365","stimuli/woods_58.jpg"," ","woods","F","repeat"," ","38","","","","","",""
"","","","","","image-keyboard-response","52","2.0.0","57724","pgo4a3w2130","tiger","null","stimuli/bridge_36.jpg","null","bridge","A","non-repeat","null","39","stimuli/bridge_36.jpg","","","","",""
"","","","","","image-keyboard-response","53","2.0.0","58734","pgo4a3w2130","tiger","null","stimuli/street_58.jpg","null","street","B","non-repeat","null","40","stimuli/street_58.jpg","","","","",""
"","","","","","image-keyboard-response","54","2.0.0","59747","pgo4a3w2130","tiger","null","stimuli/gym_53.jpg","null","gym","C","non-repeat","null","41","stimuli/gym_53.jpg","","","","",""
"","","","","","image-keyboard-response","55","2.0.0","60762","pgo4a3w2130","tiger","null","stimuli/bathroom_11.jpg","null","bathroom","G","non-repeat","null","42","stimuli/bathroom_11.jpg","","","","",""
"","","","","","image-keyboard-response","56","2.0.0","61772","pgo4a3w2130","tiger","null","stimuli/kitchen_15.jpg","null","kitchen","H","non-repeat","null","43","stimuli/kitchen_15.jpg","","","","",""
"","","","","","image-keyboard-response","57","2.0.0","62788","pgo4a3w2130","tiger","null","stimuli/bar_67.jpg","null","bar","I","non-repeat","null","44","stimuli/bar_67.jpg","","","","",""
"","","","","","image-keyboard-response","58","2.0.0","63801","pgo4a3w2130","tiger","null","stimuli/stream_46.jpg","null","stream","D","non-repeat","null","45","stimuli/stream_46.jpg","","","","",""
"","","","","","image-keyboard-response","59","2.0.0","64807","pgo4a3w2130","tiger","408","stimuli/stream_46.jpg"," ","stream","D","repeat"," ","45","","","","","",""
"","","","","","image-keyboard-response","60","2.0.0","65820","pgo4a3w2130","tiger","null","stimuli/field_54.jpg","null","field","E","non-repeat","null","46","stimuli/field_54.jpg","","","","",""
"","","","","","image-keyboard-response","61","2.0.0","66828","pgo4a3w2130","tiger","null","stimuli/woods_58.jpg","null","woods","F","non-repeat","null","47","stimuli/woods_58.jpg","","","","",""
"","","","","","image-keyboard-response","62","2.0.0","67841","pgo4a3w2130","tiger","null","stimuli/playground_6.jpg","null","playground","J","non-repeat","null","48","stimuli/playground_6.jpg","","","","",""
"","","","","","image-keyboard-response","63","2.0.0","68854","pgo4a3w2130","tiger","null","stimuli/desert_17.jpg","null","desert","K","non-repeat","null","49","stimuli/desert_17.jpg","","","","",""
"","","","","","image-keyboard-response","64","2.0.0","69866","pgo4a3w2130","tiger","null","stimuli/coast_57.jpg","null","coast","L","non-repeat","null","50","stimuli/coast_57.jpg","","","","",""
"","","","","","image-keyboard-response","65","2.0.0","70873","pgo4a3w2130","tiger","344","stimuli/coast_57.jpg"," ","coast","L","repeat"," ","50","","","","","",""
"","","","","","image-keyboard-response","66","2.0.0","71887","pgo4a3w2130","tiger","null","stimuli/stream_46.jpg","null","stream","D","non-repeat","null","51","stimuli/stream_46.jpg","","","","",""
"","","","","","image-keyboard-response","67","2.0.0","72897","pgo4a3w2130","tiger","null","stimuli/field_54.jpg","null","field","E","non-repeat","null","52","stimuli/field_54.jpg","","","","",""
"","","","","","image-keyboard-response","68","2.0.0","73910","pgo4a3w2130","tiger","null","stimuli/woods_58.jpg","null","woods","F","non-repeat","null","53","stimuli/woods_58.jpg","","","","",""
"","","","","","image-keyboard-response","69","2.0.0","74919","pgo4a3w2130","tiger","null","stimuli/bathroom_11.jpg","null","bathroom","G","non-repeat","null","54","stimuli/bathroom_11.jpg","","","","",""
"","","","","","image-keyboard-response","70","2.0.0","75927","pgo4a3w2130","tiger","null","stimuli/bathroom_11.jpg","null","bathroom","G","repeat"," ","54","","","","","",""
"","","","","","image-keyboard-response","71","2.0.0","76933","pgo4a3w2130","tiger","null","stimuli/kitchen_15.jpg","null","kitchen","H","non-repeat","null","55","stimuli/kitchen_15.jpg","","","","",""
"","","","","","image-keyboard-response","72","2.0.0","77943","pgo4a3w2130","tiger","null","stimuli/bar_67.jpg","null","bar","I","non-repeat","null","56","stimuli/bar_67.jpg","","","","",""
"","","","","","image-keyboard-response","73","2.0.0","78954","pgo4a3w2130","tiger","449","stimuli/bar_67.jpg"," ","bar","I","repeat"," ","56","","","","","",""
"","","","","","image-keyboard-response","74","2.0.0","79963","pgo4a3w2130","tiger","null","stimuli/stream_46.jpg","null","stream","D","non-repeat","null","57","stimuli/stream_46.jpg","","","","",""
"","","","","","image-keyboard-response","75","2.0.0","80976","pgo4a3w2130","tiger","null","stimuli/stream_46.jpg","null","stream","D","repeat"," ","57","","","","","",""
"","","","","","image-keyboard-response","76","2.0.0","81989","pgo4a3w2130","tiger","null","stimuli/field_54.jpg","null","field","E","non-repeat","null","58","stimuli/field_54.jpg","","","","",""
"","","","","","image-keyboard-response","77","2.0.0","83002","pgo4a3w2130","tiger","null","stimuli/woods_58.jpg","null","woods","F","non-repeat","null","59","stimuli/woods_58.jpg","","","","",""
"","","","","","image-keyboard-response","78","2.0.0","84013","pgo4a3w2130","tiger","null","stimuli/bathroom_11.jpg","null","bathroom","G","non-repeat","null","60","stimuli/bathroom_11.jpg","","","","",""
"","","","","","image-keyboard-response","79","2.0.0","85021","pgo4a3w2130","tiger","null","stimuli/kitchen_15.jpg","null","kitchen","H","non-repeat","null","61","stimuli/kitchen_15.jpg","","","","",""
"","","","","","image-keyboard-response","80","2.0.0","86034","pgo4a3w2130","tiger","null","stimuli/bar_67.jpg","null","bar","I","non-repeat","null","62","stimuli/bar_67.jpg","","","","",""
"","","","","","image-keyboard-response","81","2.0.0","87043","pgo4a3w2130","tiger","null","stimuli/stream_46.jpg","null","stream","D","non-repeat","null","63","stimuli/stream_46.jpg","","","","",""
"","","","","","image-keyboard-response","82","2.0.0","88053","pgo4a3w2130","tiger","null","stimuli/field_54.jpg","null","field","E","non-repeat","null","64","stimuli/field_54.jpg","","","","",""
"","","","","","image-keyboard-response","83","2.0.0","89065","pgo4a3w2130","tiger","null","stimuli/woods_58.jpg","null","woods","F","non-repeat","null","65","stimuli/woods_58.jpg","","","","",""
"","","","","","image-keyboard-response","84","2.0.0","90074","pgo4a3w2130","tiger","null","stimuli/bridge_36.jpg","null","bridge","A","non-repeat","null","66","stimuli/bridge_36.jpg","","","","",""
"","","","","","image-keyboard-response","85","2.0.0","91084","pgo4a3w2130","tiger","null","stimuli/street_58.jpg","null","street","B","non-repeat","null","67","stimuli/street_58.jpg","","","","",""
"","","","","","image-keyboard-response","86","2.0.0","92088","pgo4a3w2130","tiger","null","stimuli/gym_53.jpg","null","gym","C","non-repeat","null","68","stimuli/gym_53.jpg","","","","",""
"","","","","","image-keyboard-response","87","2.0.0","93101","pgo4a3w2130","tiger","null","stimuli/stream_46.jpg","null","stream","D","non-repeat","null","69","stimuli/stream_46.jpg","","","","",""
"","","","","","image-keyboard-response","88","2.0.0","94112","pgo4a3w2130","tiger","null","stimuli/field_54.jpg","null","field","E","non-repeat","null","70","stimuli/field_54.jpg","","","","",""
"","","","","","image-keyboard-response","89","2.0.0","95127","pgo4a3w2130","tiger","null","stimuli/woods_58.jpg","null","woods","F","non-repeat","null","71","stimuli/woods_58.jpg","","","","",""
"","","","","","image-keyboard-response","90","2.0.0","96138","pgo4a3w2130","tiger","null","stimuli/playground_6.jpg","null","playground","J","non-repeat","null","72","stimuli/playground_6.jpg","","","","",""
"","","","","","image-keyboard-response","91","2.0.0","97150","pgo4a3w2130","tiger","null","stimuli/desert_17.jpg","null","desert","K","non-repeat","null","73","stimuli/desert_17.jpg","","","","",""
"","","","","","image-keyboard-response","92","2.0.0","98163","pgo4a3w2130","tiger","null","stimuli/coast_57.jpg","null","coast","L","non-repeat","null","74","stimuli/coast_57.jpg","","","","",""
"","","","","","image-keyboard-response","93","2.0.0","99176","pgo4a3w2130","tiger","441","stimuli/coast_57.jpg"," ","coast","L","repeat"," ","74","","","","","",""
"","","","","","image-keyboard-response","94","2.0.0","100189","pgo4a3w2130","tiger","null","stimuli/bridge_36.jpg","null","bridge","A","non-repeat","null","75","stimuli/bridge_36.jpg","","","","",""
"","","","","","image-keyboard-response","95","2.0.0","101200","pgo4a3w2130","tiger","null","stimuli/street_58.jpg","null","street","B","non-repeat","null","76","stimuli/street_58.jpg","","","","",""
"","","","","","image-keyboard-response","96","2.0.0","102210","pgo4a3w2130","tiger","null","stimuli/gym_53.jpg","null","gym","C","non-repeat","null","77","stimuli/gym_53.jpg","","","","",""
"","","","","","image-keyboard-response","97","2.0.0","103224","pgo4a3w2130","tiger","null","stimuli/stream_46.jpg","null","stream","D","non-repeat","null","78","stimuli/stream_46.jpg","","","","",""
"","","","","","image-keyboard-response","98","2.0.0","104232","pgo4a3w2130","tiger","664","stimuli/stream_46.jpg"," ","stream","D","repeat"," ","78","","","","","",""
"","","","","","image-keyboard-response","99","2.0.0","105240","pgo4a3w2130","tiger","null","stimuli/field_54.jpg","null","field","E","non-repeat","null","79","stimuli/field_54.jpg","","","","",""
"","","","","","image-keyboard-response","100","2.0.0","106250","pgo4a3w2130","tiger","null","stimuli/woods_58.jpg","null","woods","F","non-repeat","null","80","stimuli/woods_58.jpg","","","","",""
"","","","","","image-keyboard-response","101","2.0.0","107263","pgo4a3w2130","tiger","null","stimuli/playground_6.jpg","null","playground","J","non-repeat","null","81","stimuli/playground_6.jpg","","","","",""
"","","","","","image-keyboard-response","102","2.0.0","108274","pgo4a3w2130","tiger","256","stimuli/desert_17.jpg"," ","desert","K","non-repeat","null","82","stimuli/desert_17.jpg","","","","",""
"","","","","","image-keyboard-response","103","2.0.0","109285","pgo4a3w2130","tiger","null","stimuli/coast_57.jpg","null","coast","L","non-repeat","null","83","stimuli/coast_57.jpg","","","","",""
"","","","","","image-keyboard-response","104","2.0.0","110299","pgo4a3w2130","tiger","null","stimuli/bathroom_11.jpg","null","bathroom","G","non-repeat","null","84","stimuli/bathroom_11.jpg","","","","",""
"","","","","","image-keyboard-response","105","2.0.0","111315","pgo4a3w2130","tiger","null","stimuli/kitchen_15.jpg","null","kitchen","H","non-repeat","null","85","stimuli/kitchen_15.jpg","","","","",""
"","","","","","image-keyboard-response","106","2.0.0","112325","pgo4a3w2130","tiger","null","stimuli/bar_67.jpg","null","bar","I","non-repeat","null","86","stimuli/bar_67.jpg","","","","",""
"","","","","","image-keyboard-response","107","2.0.0","113337","pgo4a3w2130","tiger","null","stimuli/bridge_36.jpg","null","bridge","A","non-repeat","null","87","stimuli/bridge_36.jpg","","","","",""
"","","","","","image-keyboard-response","108","2.0.0","114349","pgo4a3w2130","tiger","null","stimuli/street_58.jpg","null","street","B","non-repeat","null","88","stimuli/street_58.jpg","","","","",""
"","","","","","image-keyboard-response","109","2.0.0","115360","pgo4a3w2130","tiger","null","stimuli/gym_53.jpg","null","gym","C","non-repeat","null","89","stimuli/gym_53.jpg","","","","",""
"","","","","","image-keyboard-response","110","2.0.0","116371","pgo4a3w2130","tiger","null","stimuli/bathroom_11.jpg","null","bathroom","G","non-repeat","null","90","stimuli/bathroom_11.jpg","","","","",""
"","","","","","image-keyboard-response","111","2.0.0","117383","pgo4a3w2130","tiger","null","stimuli/kitchen_15.jpg","null","kitchen","H","non-repeat","null","91","stimuli/kitchen_15.jpg","","","","",""
"","","","","","image-keyboard-response","112","2.0.0","118396","pgo4a3w2130","tiger","null","stimuli/bar_67.jpg","null","bar","I","non-repeat","null","92","stimuli/bar_67.jpg","","","","",""
"","","","","","image-keyboard-response","113","2.0.0","119406","pgo4a3w2130","tiger","null","stimuli/playground_6.jpg","null","playground","J","non-repeat","null","93","stimuli/playground_6.jpg","","","","",""
"","","","","","image-keyboard-response","114","2.0.0","120422","pgo4a3w2130","tiger","null","stimuli/desert_17.jpg","null","desert","K","non-repeat","null","94","stimuli/desert_17.jpg","","","","",""
"","","","","","image-keyboard-response","115","2.0.0","121432","pgo4a3w2130","tiger","null","stimuli/coast_57.jpg","null","coast","L","non-repeat","null","95","stimuli/coast_57.jpg","","","","",""
"","","","","","image-keyboard-response","116","2.0.0","122445","pgo4a3w2130","tiger","null","stimuli/stream_46.jpg","null","stream","D","non-repeat","null","96","stimuli/stream_46.jpg","","","","",""
"","","","","","image-keyboard-response","117","2.0.0","123455","pgo4a3w2130","tiger","417","stimuli/stream_46.jpg"," ","stream","D","repeat"," ","96","","","","","",""
"","","","","","image-keyboard-response","118","2.0.0","124467","pgo4a3w2130","tiger","null","stimuli/field_54.jpg","null","field","E","non-repeat","null","97","stimuli/field_54.jpg","","","","",""
"","","","","","image-keyboard-response","119","2.0.0","125479","pgo4a3w2130","tiger","null","stimuli/woods_58.jpg","null","woods","F","non-repeat","null","98","stimuli/woods_58.jpg","","","","",""
"","","","","","image-keyboard-response","120","2.0.0","126491","pgo4a3w2130","tiger","null","stimuli/woods_58.jpg","null","woods","F","repeat"," ","98","","","","","",""
"","","","","","image-keyboard-response","121","2.0.0","127498","pgo4a3w2130","tiger","null","stimuli/bathroom_11.jpg","null","bathroom","G","non-repeat","null","99","stimuli/bathroom_11.jpg","","","","",""
"","","","","","image-keyboard-response","122","2.0.0","128509","pgo4a3w2130","tiger","null","stimuli/kitchen_15.jpg","null","kitchen","H","non-repeat","null","100","stimuli/kitchen_15.jpg","","","","",""
"","","","","","image-keyboard-response","123","2.0.0","129518","pgo4a3w2130","tiger","null","stimuli/bar_67.jpg","null","bar","I","non-repeat","null","101","stimuli/bar_67.jpg","","","","",""
"","","","","","image-keyboard-response","124","2.0.0","130529","pgo4a3w2130","tiger","489","stimuli/bar_67.jpg"," ","bar","I","repeat"," ","101","","","","","",""
"","","","","","image-keyboard-response","125","2.0.0","131542","pgo4a3w2130","tiger","null","stimuli/playground_6.jpg","null","playground","J","non-repeat","null","102","stimuli/playground_6.jpg","","","","",""
"","","","","","image-keyboard-response","126","2.0.0","132552","pgo4a3w2130","tiger","413","stimuli/playground_6.jpg"," ","playground","J","repeat"," ","102","","","","","",""
"","","","","","image-keyboard-response","127","2.0.0","133562","pgo4a3w2130","tiger","null","stimuli/desert_17.jpg","null","desert","K","non-repeat","null","103","stimuli/desert_17.jpg","","","","",""
"","","","","","image-keyboard-response","128","2.0.0","134575","pgo4a3w2130","tiger","null","stimuli/coast_57.jpg","null","coast","L","non-repeat","null","104","stimuli/coast_57.jpg","","","","",""
"","","","","","image-keyboard-response","129","2.0.0","135586","pgo4a3w2130","tiger","null","stimuli/stream_46.jpg","null","stream","D","non-repeat","null","105","stimuli/stream_46.jpg","","","","",""
"","","","","","image-keyboard-response","130","2.0.0","136599","pgo4a3w2130","tiger","null","stimuli/field_54.jpg","null","field","E","non-repeat","null","106","stimuli/field_54.jpg","","","","",""
"","","","","","image-keyboard-response","131","2.0.0","137611","pgo4a3w2130","tiger","null","stimuli/woods_58.jpg","null","woods","F","non-repeat","null","107","stimuli/woods_58.jpg","","","","",""
"","","","","","image-keyboard-response","132","2.0.0","138620","pgo4a3w2130","tiger","null","stimuli/bridge_36.jpg","null","bridge","A","non-repeat","null","108","stimuli/bridge_36.jpg","","","","",""
"","","","","","image-keyboard-response","133","2.0.0","139627","pgo4a3w2130","tiger","null","stimuli/street_58.jpg","null","street","B","non-repeat","null","109","stimuli/street_58.jpg","","","","",""
"","","","","","image-keyboard-response","134","2.0.0","140642","pgo4a3w2130","tiger","null","stimuli/gym_53.jpg","null","gym","C","non-repeat","null","110","stimuli/gym_53.jpg","","","","",""
"","","","","","image-keyboard-response","135","2.0.0","141654","pgo4a3w2130","tiger","null","stimuli/bathroom_11.jpg","null","bathroom","G","non-repeat","null","111","stimuli/bathroom_11.jpg","","","","",""
"","","","","","image-keyboard-response","136","2.0.0","142665","pgo4a3w2130","tiger","null","stimuli/kitchen_15.jpg","null","kitchen","H","non-repeat","null","112","stimuli/kitchen_15.jpg","","","","",""
"","","","","","image-keyboard-response","137","2.0.0","143678","pgo4a3w2130","tiger","null","stimuli/bar_67.jpg","null","bar","I","non-repeat","null","113","stimuli/bar_67.jpg","","","","",""
"","","","","","image-keyboard-response","138","2.0.0","144687","pgo4a3w2130","tiger","428","stimuli/bar_67.jpg"," ","bar","I","repeat"," ","113","","","","","",""
"","","","","","image-keyboard-response","139","2.0.0","145697","pgo4a3w2130","tiger","null","stimuli/bridge_36.jpg","null","bridge","A","non-repeat","null","114","stimuli/bridge_36.jpg","","","","",""
"","","","","","image-keyboard-response","140","2.0.0","146712","pgo4a3w2130","tiger","null","stimuli/street_58.jpg","null","street","B","non-repeat","null","115","stimuli/street_58.jpg","","","","",""
"","","","","","image-keyboard-response","141","2.0.0","147725","pgo4a3w2130","tiger","null","stimuli/gym_53.jpg","null","gym","C","non-repeat","null","116","stimuli/gym_53.jpg","","","","",""
"","","","","","image-keyboard-response","142","2.0.0","148736","pgo4a3w2130","tiger","null","stimuli/playground_6.jpg","null","playground","J","non-repeat","null","117","stimuli/playground_6.jpg","","","","",""
"","","","","","image-keyboard-response","143","2.0.0","149746","pgo4a3w2130","tiger","null","stimuli/desert_17.jpg","null","desert","K","non-repeat","null","118","stimuli/desert_17.jpg","","","","",""
"","","","","","image-keyboard-response","144","2.0.0","150758","pgo4a3w2130","tiger","null","stimuli/coast_57.jpg","null","coast","L","non-repeat","null","119","stimuli/coast_57.jpg","","","","",""
"","","","","","image-keyboard-response","145","2.0.0","151765","pgo4a3w2130","tiger","null","stimuli/stream_46.jpg","null","stream","D","non-repeat","null","120","stimuli/stream_46.jpg","","","","",""
"","","","","","image-keyboard-response","146","2.0.0","152775","pgo4a3w2130","tiger","null","stimuli/field_54.jpg","null","field","E","non-repeat","null","121","stimuli/field_54.jpg","","","","",""
"","","","","","image-keyboard-response","147","2.0.0","153790","pgo4a3w2130","tiger","null","stimuli/woods_58.jpg","null","woods","F","non-repeat","null","122","stimuli/woods_58.jpg","","","","",""
"","","","","","image-keyboard-response","148","2.0.0","154801","pgo4a3w2130","tiger","null","stimuli/playground_6.jpg","null","playground","J","non-repeat","null","123","stimuli/playground_6.jpg","","","","",""
"","","","","","image-keyboard-response","149","2.0.0","155816","pgo4a3w2130","tiger","null","stimuli/desert_17.jpg","null","desert","K","non-repeat","null","124","stimuli/desert_17.jpg","","","","",""
"","","","","","image-keyboard-response","150","2.0.0","156828","pgo4a3w2130","tiger","null","stimuli/coast_57.jpg","null","coast","L","non-repeat","null","125","stimuli/coast_57.jpg","","","","",""
"","","","","","image-keyboard-response","151","2.0.0","157839","pgo4a3w2130","tiger","null","stimuli/stream_46.jpg","null","stream","D","non-repeat","null","126","stimuli/stream_46.jpg","","","","",""
"","","","","","image-keyboard-response","152","2.0.0","158851","pgo4a3w2130","tiger","null","stimuli/field_54.jpg","null","field","E","non-repeat","null","127","stimuli/field_54.jpg","","","","",""
"","","","","","image-keyboard-response","153","2.0.0","159857","pgo4a3w2130","tiger","null","stimuli/woods_58.jpg","null","woods","F","non-repeat","null","128","stimuli/woods_58.jpg","","","","",""
"","","","","","image-keyboard-response","154","2.0.0","160869","pgo4a3w2130","tiger","340","stimuli/woods_58.jpg"," ","woods","F","repeat"," ","128","","","","","",""
"","","","","","image-keyboard-response","155","2.0.0","161877","pgo4a3w2130","tiger","null","stimuli/bridge_36.jpg","null","bridge","A","non-repeat","null","129","stimuli/bridge_36.jpg","","","","",""
"","","","","","image-keyboard-response","156","2.0.0","162891","pgo4a3w2130","tiger","null","stimuli/street_58.jpg","null","street","B","non-repeat","null","130","stimuli/street_58.jpg","","","","",""
"","","","","","image-keyboard-response","157","2.0.0","163905","pgo4a3w2130","tiger","null","stimuli/gym_53.jpg","null","gym","C","non-repeat","null","131","stimuli/gym_53.jpg","","","","",""
"","","","","","image-keyboard-response","158","2.0.0","164918","pgo4a3w2130","tiger","null","stimuli/stream_46.jpg","null","stream","D","non-repeat","null","132","stimuli/stream_46.jpg","","","","",""
"","","","","","image-keyboard-response","159","2.0.0","165928","pgo4a3w2130","tiger","null","stimuli/field_54.jpg","null","field","E","non-repeat","null","133","stimuli/field_54.jpg","","","","",""
"","","","","","image-keyboard-response","160","2.0.0","166937","pgo4a3w2130","tiger","null","stimuli/woods_58.jpg","null","woods","F","non-repeat","null","134","stimuli/woods_58.jpg","","","","",""
"","","","","","image-keyboard-response","161","2.0.0","167946","pgo4a3w2130","tiger","null","stimuli/bathroom_11.jpg","null","bathroom","G","non-repeat","null","135","stimuli/bathroom_11.jpg","","","","",""
"","","","","","image-keyboard-response","162","2.0.0","168961","pgo4a3w2130","tiger","null","stimuli/kitchen_15.jpg","null","kitchen","H","non-repeat","null","136","stimuli/kitchen_15.jpg","","","","",""
"","","","","","image-keyboard-response","163","2.0.0","169975","pgo4a3w2130","tiger","null","stimuli/bar_67.jpg","null","bar","I","non-repeat","null","137","stimuli/bar_67.jpg","","","","",""
"","","","","","image-keyboard-response","164","2.0.0","170982","pgo4a3w2130","tiger","null","stimuli/bridge_36.jpg","null","bridge","A","non-repeat","null","138","stimuli/bridge_36.jpg","","","","",""
"","","","","","image-keyboard-response","165","2.0.0","171994","pgo4a3w2130","tiger","null","stimuli/street_58.jpg","null","street","B","non-repeat","null","139","stimuli/street_58.jpg","","","","",""
"","","","","","image-keyboard-response","166","2.0.0","173008","pgo4a3w2130","tiger","null","stimuli/gym_53.jpg","null","gym","C","non-repeat","null","140","stimuli/gym_53.jpg","","","","",""
"","","","","","image-keyboard-response","167","2.0.0","174024","pgo4a3w2130","tiger","null","stimuli/bathroom_11.jpg","null","bathroom","G","non-repeat","null","141","stimuli/bathroom_11.jpg","","","","",""
"","","","","","image-keyboard-response","168","2.0.0","175030","pgo4a3w2130","tiger","null","stimuli/kitchen_15.jpg","null","kitchen","H","non-repeat","null","142","stimuli/kitchen_15.jpg","","","","",""
"","","","","","image-keyboard-response","169","2.0.0","176039","pgo4a3w2130","tiger","null","stimuli/bar_67.jpg","null","bar","I","non-repeat","null","143","stimuli/bar_67.jpg","","","","",""
"","","","","","image-keyboard-response","170","2.0.0","177048","pgo4a3w2130","tiger","null","stimuli/bridge_36.jpg","null","bridge","A","non-repeat","null","144","stimuli/bridge_36.jpg","","","","",""
"","","","","","image-keyboard-response","171","2.0.0","178060","pgo4a3w2130","tiger","448","stimuli/bridge_36.jpg"," ","bridge","A","repeat"," ","144","","","","","",""
"","","","","","image-keyboard-response","172","2.0.0","179068","pgo4a3w2130","tiger","null","stimuli/street_58.jpg","null","street","B","non-repeat","null","145","stimuli/street_58.jpg","","","","",""
"","","","","","image-keyboard-response","173","2.0.0","180079","pgo4a3w2130","tiger","null","stimuli/gym_53.jpg","null","gym","C","non-repeat","null","146","stimuli/gym_53.jpg","","","","",""
"","","","","","image-keyboard-response","174","2.0.0","181086","pgo4a3w2130","tiger","523","stimuli/gym_53.jpg"," ","gym","C","repeat"," ","146","","","","","",""
"","","","","","image-keyboard-response","175","2.0.0","182095","pgo4a3w2130","tiger","null","stimuli/bathroom_11.jpg","null","bathroom","G","non-repeat","null","147","stimuli/bathroom_11.jpg","","","","",""
"","","","","","image-keyboard-response","176","2.0.0","183108","pgo4a3w2130","tiger","397","stimuli/bathroom_11.jpg"," ","bathroom","G","repeat"," ","147","","","","","",""
"","","","","","image-keyboard-response","177","2.0.0","184120","pgo4a3w2130","tiger","null","stimuli/kitchen_15.jpg","null","kitchen","H","non-repeat","null","148","stimuli/kitchen_15.jpg","","","","",""
"","","","","","image-keyboard-response","178","2.0.0","185134","pgo4a3w2130","tiger","null","stimuli/bar_67.jpg","null","bar","I","non-repeat","null","149","stimuli/bar_67.jpg","","","","",""
"","","","","","image-keyboard-response","179","2.0.0","186146","pgo4a3w2130","tiger","null","stimuli/stream_46.jpg","null","stream","D","non-repeat","null","150","stimuli/stream_46.jpg","","","","",""
"","","","","","image-keyboard-response","180","2.0.0","187156","pgo4a3w2130","tiger","null","stimuli/field_54.jpg","null","field","E","non-repeat","null","151","stimuli/field_54.jpg","","","","",""
"","","","","","image-keyboard-response","181","2.0.0","188164","pgo4a3w2130","tiger","null","stimuli/woods_58.jpg","null","woods","F","non-repeat","null","152","stimuli/woods_58.jpg","","","","",""
"","","","","","image-keyboard-response","182","2.0.0","189177","pgo4a3w2130","tiger","423","stimuli/woods_58.jpg"," ","woods","F","repeat"," ","152","","","","","",""
"","","","","","image-keyboard-response","183","2.0.0","190190","pgo4a3w2130","tiger","null","stimuli/playground_6.jpg","null","playground","J","non-repeat","null","153","stimuli/playground_6.jpg","","","","",""
"","","","","","image-keyboard-response","184","2.0.0","191201","pgo4a3w2130","tiger","null","stimuli/desert_17.jpg","null","desert","K","non-repeat","null","154","stimuli/desert_17.jpg","","","","",""
"","","","","","image-keyboard-response","185","2.0.0","192210","pgo4a3w2130","tiger","null","stimuli/coast_57.jpg","null","coast","L","non-repeat","null","155","stimuli/coast_57.jpg","","","","",""
"","","","","","image-keyboard-response","186","2.0.0","193221","pgo4a3w2130","tiger","287","stimuli/coast_57.jpg"," ","coast","L","repeat"," ","155","","","","","",""
"","","","","","image-keyboard-response","187","2.0.0","194234","pgo4a3w2130","tiger","null","stimuli/bridge_36.jpg","null","bridge","A","non-repeat","null","156","stimuli/bridge_36.jpg","","","","",""
"","","","","","image-keyboard-response","188","2.0.0","195247","pgo4a3w2130","tiger","null","stimuli/street_58.jpg","null","street","B","non-repeat","null","157","stimuli/street_58.jpg","","","","",""
"","","","","","image-keyboard-response","189","2.0.0","196253","pgo4a3w2130","tiger","null","stimuli/gym_53.jpg","null","gym","C","non-repeat","null","158","stimuli/gym_53.jpg","","","","",""
"","","","","","image-keyboard-response","190","2.0.0","197258","pgo4a3w2130","tiger","null","stimuli/playground_6.jpg","null","playground","J","non-repeat","null","159","stimuli/playground_6.jpg","","","","",""
"","","","","","image-keyboard-response","191","2.0.0","198267","pgo4a3w2130","tiger","null","stimuli/desert_17.jpg","null","desert","K","non-repeat","null","160","stimuli/desert_17.jpg","","","","",""
"","","","","","image-keyboard-response","192","2.0.0","199283","pgo4a3w2130","tiger","null","stimuli/coast_57.jpg","null","coast","L","non-repeat","null","161","stimuli/coast_57.jpg","","","","",""
"","","","","","image-keyboard-response","193","2.0.0","200290","pgo4a3w2130","tiger","null","stimuli/stream_46.jpg","null","stream","D","non-repeat","null","162","stimuli/stream_46.jpg","","","","",""
"","","","","","image-keyboard-response","194","2.0.0","201298","pgo4a3w2130","tiger","454","stimuli/stream_46.jpg"," ","stream","D","repeat"," ","162","","","","","",""
"","","","","","image-keyboard-response","195","2.0.0","202300","pgo4a3w2130","tiger","null","stimuli/field_54.jpg","null","field","E","non-repeat","null","163","stimuli/field_54.jpg","","","","",""
"","","","","","image-keyboard-response","196","2.0.0","203308","pgo4a3w2130","tiger","null","stimuli/woods_58.jpg","null","woods","F","non-repeat","null","164","stimuli/woods_58.jpg","","","","",""
"","","","","","image-keyboard-response","197","2.0.0","204321","pgo4a3w2130","tiger","375","stimuli/woods_58.jpg"," ","woods","F","repeat"," ","164","","","","","",""
"","","","","","image-keyboard-response","198","2.0.0","205334","pgo4a3w2130","tiger","null","stimuli/bridge_36.jpg","null","bridge","A","non-repeat","null","165","stimuli/bridge_36.jpg","","","","",""
"","","","","","image-keyboard-response","199","2.0.0","206342","pgo4a3w2130","tiger","null","stimuli/street_58.jpg","null","street","B","non-repeat","null","166","stimuli/street_58.jpg","","","","",""
"","","","","","image-keyboard-response","200","2.0.0","207350","pgo4a3w2130","tiger","null","stimuli/gym_53.jpg","null","gym","C","non-repeat","null","167","stimuli/gym_53.jpg","","","","",""
"","","","","","image-keyboard-response","201","2.0.0","208364","pgo4a3w2130","tiger","null","stimuli/bathroom_11.jpg","null","bathroom","G","non-repeat","null","168","stimuli/bathroom_11.jpg","","","","",""
"","","","","","image-keyboard-response","202","2.0.0","209377","pgo4a3w2130","tiger","null","stimuli/kitchen_15.jpg","null","kitchen","H","non-repeat","null","169","stimuli/kitchen_15.jpg","","","","",""
"","","","","","image-keyboard-response","203","2.0.0","210380","pgo4a3w2130","tiger","null","stimuli/bar_67.jpg","null","bar","I","non-repeat","null","170","stimuli/bar_67.jpg","","","","",""
"","","","","","image-keyboard-response","204","2.0.0","211394","pgo4a3w2130","tiger","null","stimuli/bridge_36.jpg","null","bridge","A","non-repeat","null","171","stimuli/bridge_36.jpg","","","","",""
"","","","","","image-keyboard-response","205","2.0.0","212399","pgo4a3w2130","tiger","null","stimuli/street_58.jpg","null","street","B","non-repeat","null","172","stimuli/street_58.jpg","","","","",""
"","","","","","image-keyboard-response","206","2.0.0","213411","pgo4a3w2130","tiger","null","stimuli/gym_53.jpg","null","gym","C","non-repeat","null","173","stimuli/gym_53.jpg","","","","",""
"","","","","","image-keyboard-response","207","2.0.0","214420","pgo4a3w2130","tiger","null","stimuli/playground_6.jpg","null","playground","J","non-repeat","null","174","stimuli/playground_6.jpg","","","","",""
"","","","","","image-keyboard-response","208","2.0.0","215430","pgo4a3w2130","tiger","585","stimuli/playground_6.jpg"," ","playground","J","repeat"," ","174","","","","","",""
"","","","","","image-keyboard-response","209","2.0.0","216436","pgo4a3w2130","tiger","null","stimuli/desert_17.jpg","null","desert","K","non-repeat","null","175","stimuli/desert_17.jpg","","","","",""
"","","","","","image-keyboard-response","210","2.0.0","217445","pgo4a3w2130","tiger","null","stimuli/coast_57.jpg","null","coast","L","non-repeat","null","176","stimuli/coast_57.jpg","","","","",""
"","","","","","image-keyboard-response","211","2.0.0","218450","pgo4a3w2130","tiger","724","stimuli/coast_57.jpg"," ","coast","L","repeat"," ","176","","","","","",""
"","","","","","image-keyboard-response","212","2.0.0","219459","pgo4a3w2130","tiger","null","stimuli/stream_46.jpg","null","stream","D","non-repeat","null","177","stimuli/stream_46.jpg","","","","",""
"","","","","","image-keyboard-response","213","2.0.0","220470","pgo4a3w2130","tiger","null","stimuli/field_54.jpg","null","field","E","non-repeat","null","178","stimuli/field_54.jpg","","","","",""
"","","","","","image-keyboard-response","214","2.0.0","221472","pgo4a3w2130","tiger","null","stimuli/woods_58.jpg","null","woods","F","non-repeat","null","179","stimuli/woods_58.jpg","","","","",""
"","","","","","image-keyboard-response","215","2.0.0","222485","pgo4a3w2130","tiger","null","stimuli/bathroom_11.jpg","null","bathroom","G","non-repeat","null","180","stimuli/bathroom_11.jpg","","","","",""
"","","","","","image-keyboard-response","216","2.0.0","223495","pgo4a3w2130","tiger","586","stimuli/bathroom_11.jpg"," ","bathroom","G","repeat"," ","180","","","","","",""
"","","","","","image-keyboard-response","217","2.0.0","224505","pgo4a3w2130","tiger","null","stimuli/kitchen_15.jpg","null","kitchen","H","non-repeat","null","181","stimuli/kitchen_15.jpg","","","","",""
"","","","","","image-keyboard-response","218","2.0.0","225520","pgo4a3w2130","tiger","null","stimuli/bar_67.jpg","null","bar","I","non-repeat","null","182","stimuli/bar_67.jpg","","","","",""
"","","","","","image-keyboard-response","219","2.0.0","226528","pgo4a3w2130","tiger","null","stimuli/stream_46.jpg","null","stream","D","non-repeat","null","183","stimuli/stream_46.jpg","","","","",""
"","","","","","image-keyboard-response","220","2.0.0","227543","pgo4a3w2130","tiger","null","stimuli/field_54.jpg","null","field","E","non-repeat","null","184","stimuli/field_54.jpg","","","","",""
"","","","","","image-keyboard-response","221","2.0.0","228552","pgo4a3w2130","tiger","null","stimuli/woods_58.jpg","null","woods","F","non-repeat","null","185","stimuli/woods_58.jpg","","","","",""
"","","","","","image-keyboard-response","222","2.0.0","229564","pgo4a3w2130","tiger","null","stimuli/playground_6.jpg","null","playground","J","non-repeat","null","186","stimuli/playground_6.jpg","","","","",""
"","","","","","image-keyboard-response","223","2.0.0","230578","pgo4a3w2130","tiger","null","stimuli/desert_17.jpg","null","desert","K","non-repeat","null","187","stimuli/desert_17.jpg","","","","",""
"","","","","","image-keyboard-response","224","2.0.0","231589","pgo4a3w2130","tiger","null","stimuli/coast_57.jpg","null","coast","L","non-repeat","null","188","stimuli/coast_57.jpg","","","","",""
"","","","","","image-keyboard-response","225","2.0.0","232601","pgo4a3w2130","tiger","null","stimuli/bridge_36.jpg","null","bridge","A","non-repeat","null","189","stimuli/bridge_36.jpg","","","","",""
"","","","","","image-keyboard-response","226","2.0.0","233610","pgo4a3w2130","tiger","null","stimuli/street_58.jpg","null","street","B","non-repeat","null","190","stimuli/street_58.jpg","","","","",""
"","","","","","image-keyboard-response","227","2.0.0","234618","pgo4a3w2130","tiger","null","stimuli/gym_53.jpg","null","gym","C","non-repeat","null","191","stimuli/gym_53.jpg","","","","",""
"","","","","","image-keyboard-response","228","2.0.0","235629","pgo4a3w2130","tiger","null","stimuli/stream_46.jpg","null","stream","D","non-repeat","null","192","stimuli/stream_46.jpg","","","","",""
"","","","","","image-keyboard-response","229","2.0.0","236636","pgo4a3w2130","tiger","null","stimuli/field_54.jpg","null","field","E","non-repeat","null","193","stimuli/field_54.jpg","","","","",""
"","","","","","image-keyboard-response","230","2.0.0","237651","pgo4a3w2130","tiger","null","stimuli/woods_58.jpg","null","woods","F","non-repeat","null","194","stimuli/woods_58.jpg","","","","",""
"","","","","","image-keyboard-response","231","2.0.0","238663","pgo4a3w2130","tiger","null","stimuli/playground_6.jpg","null","playground","J","non-repeat","null","195","stimuli/playground_6.jpg","","","","",""
"","","","","","image-keyboard-response","232","2.0.0","239677","pgo4a3w2130","tiger","null","stimuli/desert_17.jpg","null","desert","K","non-repeat","null","196","stimuli/desert_17.jpg","","","","",""
"","","","","","image-keyboard-response","233","2.0.0","240683","pgo4a3w2130","tiger","null","stimuli/coast_57.jpg","null","coast","L","non-repeat","null","197","stimuli/coast_57.jpg","","","","",""
"","","","","","image-keyboard-response","234","2.0.0","241697","pgo4a3w2130","tiger","613","stimuli/coast_57.jpg"," ","coast","L","repeat"," ","197","","","","","",""
"","","","","","image-keyboard-response","235","2.0.0","242704","pgo4a3w2130","tiger","null","stimuli/bridge_36.jpg","null","bridge","A","non-repeat","null","198","stimuli/bridge_36.jpg","","","","",""
"","","","","","image-keyboard-response","236","2.0.0","243714","pgo4a3w2130","tiger","null","stimuli/street_58.jpg","null","street","B","non-repeat","null","199","stimuli/street_58.jpg","","","","",""
"","","","","","image-keyboard-response","237","2.0.0","244728","pgo4a3w2130","tiger","null","stimuli/gym_53.jpg","null","gym","C","non-repeat","null","200","stimuli/gym_53.jpg","","","","",""
"","","","","","image-keyboard-response","238","2.0.0","245738","pgo4a3w2130","tiger","null","stimuli/stream_46.jpg","null","stream","D","non-repeat","null","201","stimuli/stream_46.jpg","","","","",""
"","","","","","image-keyboard-response","239","2.0.0","246751","pgo4a3w2130","tiger","null","stimuli/field_54.jpg","null","field","E","non-repeat","null","202","stimuli/field_54.jpg","","","","",""
"","","","","","image-keyboard-response","240","2.0.0","247762","pgo4a3w2130","tiger","null","stimuli/woods_58.jpg","null","woods","F","non-repeat","null","203","stimuli/woods_58.jpg","","","","",""
"","","","","","image-keyboard-response","241","2.0.0","248774","pgo4a3w2130","tiger","null","stimuli/bathroom_11.jpg","null","bathroom","G","non-repeat","null","204","stimuli/bathroom_11.jpg","","","","",""
"","","","","","image-keyboard-response","242","2.0.0","249783","pgo4a3w2130","tiger","null","stimuli/kitchen_15.jpg","null","kitchen","H","non-repeat","null","205","stimuli/kitchen_15.jpg","","","","",""
"","","","","","image-keyboard-response","243","2.0.0","250793","pgo4a3w2130","tiger","null","stimuli/bar_67.jpg","null","bar","I","non-repeat","null","206","stimuli/bar_67.jpg","","","","",""
"","","","","","image-keyboard-response","244","2.0.0","251806","pgo4a3w2130","tiger","null","stimuli/bridge_36.jpg","null","bridge","A","non-repeat","null","207","stimuli/bridge_36.jpg","","","","",""
"","","","","","image-keyboard-response","245","2.0.0","252819","pgo4a3w2130","tiger","null","stimuli/street_58.jpg","null","street","B","non-repeat","null","208","stimuli/street_58.jpg","","","","",""
"","","","","","image-keyboard-response","246","2.0.0","253825","pgo4a3w2130","tiger","null","stimuli/gym_53.jpg","null","gym","C","non-repeat","null","209","stimuli/gym_53.jpg","","","","",""
"","","","","","image-keyboard-response","247","2.0.0","254834","pgo4a3w2130","tiger","null","stimuli/playground_6.jpg","null","playground","J","non-repeat","null","210","stimuli/playground_6.jpg","","","","",""
"","","","","","image-keyboard-response","248","2.0.0","255843","pgo4a3w2130","tiger","null","stimuli/desert_17.jpg","null","desert","K","non-repeat","null","211","stimuli/desert_17.jpg","","","","",""
"","","","","","image-keyboard-response","249","2.0.0","256855","pgo4a3w2130","tiger","null","stimuli/coast_57.jpg","null","coast","L","non-repeat","null","212","stimuli/coast_57.jpg","","","","",""
"","","","","","image-keyboard-response","250","2.0.0","257867","pgo4a3w2130","tiger","null","stimuli/bathroom_11.jpg","null","bathroom","G","non-repeat","null","213","stimuli/bathroom_11.jpg","","","","",""
"","","","","","image-keyboard-response","251","2.0.0","258879","pgo4a3w2130","tiger","null","stimuli/kitchen_15.jpg","null","kitchen","H","non-repeat","null","214","stimuli/kitchen_15.jpg","","","","",""
"","","","","","image-keyboard-response","252","2.0.0","259890","pgo4a3w2130","tiger","null","stimuli/bar_67.jpg","null","bar","I","non-repeat","null","215","stimuli/bar_67.jpg","","","","",""
"","","","","","image-keyboard-response","253","2.0.0","260906","pgo4a3w2130","tiger","null","stimuli/bridge_36.jpg","null","bridge","A","non-repeat","null","216","stimuli/bridge_36.jpg","","","","",""
"","","","","","image-keyboard-response","254","2.0.0","261916","pgo4a3w2130","tiger","351","stimuli/bridge_36.jpg"," ","bridge","A","repeat"," ","216","","","","","",""
"","","","","","image-keyboard-response","255","2.0.0","262930","pgo4a3w2130","tiger","null","stimuli/street_58.jpg","null","street","B","non-repeat","null","217","stimuli/street_58.jpg","","","","",""
"","","","","","image-keyboard-response","256","2.0.0","263942","pgo4a3w2130","tiger","null","stimuli/gym_53.jpg","null","gym","C","non-repeat","null","218","stimuli/gym_53.jpg","","","","",""
"","","","","","image-keyboard-response","257","2.0.0","264956","pgo4a3w2130","tiger","null","stimuli/stream_46.jpg","null","stream","D","non-repeat","null","219","stimuli/stream_46.jpg","","","","",""
"","","","","","image-keyboard-response","258","2.0.0","265965","pgo4a3w2130","tiger","null","stimuli/field_54.jpg","null","field","E","non-repeat","null","220","stimuli/field_54.jpg","","","","",""
"","","","","","image-keyboard-response","259","2.0.0","266967","pgo4a3w2130","tiger","null","stimuli/woods_58.jpg","null","woods","F","non-repeat","null","221","stimuli/woods_58.jpg","","","","",""
"","","","","","image-keyboard-response","260","2.0.0","267975","pgo4a3w2130","tiger","null","stimuli/playground_6.jpg","null","playground","J","non-repeat","null","222","stimuli/playground_6.jpg","","","","",""
"","","","","","image-keyboard-response","261","2.0.0","268986","pgo4a3w2130","tiger","null","stimuli/desert_17.jpg","null","desert","K","non-repeat","null","223","stimuli/desert_17.jpg","","","","",""
"","","","","","image-keyboard-response","262","2.0.0","269992","pgo4a3w2130","tiger","null","stimuli/coast_57.jpg","null","coast","L","non-repeat","null","224","stimuli/coast_57.jpg","","","","",""
"","","","","","image-keyboard-response","263","2.0.0","271004","pgo4a3w2130","tiger","null","stimuli/stream_46.jpg","null","stream","D","non-repeat","null","225","stimuli/stream_46.jpg","","","","",""
"","","","","","image-keyboard-response","264","2.0.0","272010","pgo4a3w2130","tiger","null","stimuli/field_54.jpg","null","field","E","non-repeat","null","226","stimuli/field_54.jpg","","","","",""
"","","","","","image-keyboard-response","265","2.0.0","273024","pgo4a3w2130","tiger","null","stimuli/woods_58.jpg","null","woods","F","non-repeat","null","227","stimuli/woods_58.jpg","","","","",""
"","","","","","image-keyboard-response","266","2.0.0","274035","pgo4a3w2130","tiger","null","stimuli/playground_6.jpg","null","playground","J","non-repeat","null","228","stimuli/playground_6.jpg","","","","",""
"","","","","","image-keyboard-response","267","2.0.0","275052","pgo4a3w2130","tiger","392","stimuli/playground_6.jpg"," ","playground","J","repeat"," ","228","","","","","",""
"","","","","","image-keyboard-response","268","2.0.0","276063","pgo4a3w2130","tiger","null","stimuli/desert_17.jpg","null","desert","K","non-repeat","null","229","stimuli/desert_17.jpg","","","","",""
"","","","","","image-keyboard-response","269","2.0.0","277072","pgo4a3w2130","tiger","null","stimuli/coast_57.jpg","null","coast","L","non-repeat","null","230","stimuli/coast_57.jpg","","","","",""
"","","","","","image-keyboard-response","270","2.0.0","278075","pgo4a3w2130","tiger","null","stimuli/bridge_36.jpg","null","bridge","A","non-repeat","null","231","stimuli/bridge_36.jpg","","","","",""
"","","","","","image-keyboard-response","271","2.0.0","279088","pgo4a3w2130","tiger","null","stimuli/street_58.jpg","null","street","B","non-repeat","null","232","stimuli/street_58.jpg","","","","",""
"","","","","","image-keyboard-response","272","2.0.0","280096","pgo4a3w2130","tiger","null","stimuli/gym_53.jpg","null","gym","C","non-repeat","null","233","stimuli/gym_53.jpg","","","","",""
"","","","","","image-keyboard-response","273","2.0.0","281107","pgo4a3w2130","tiger","null","stimuli/playground_6.jpg","null","playground","J","non-repeat","null","234","stimuli/playground_6.jpg","","","","",""
"","","","","","image-keyboard-response","274","2.0.0","282120","pgo4a3w2130","tiger","null","stimuli/desert_17.jpg","null","desert","K","non-repeat","null","235","stimuli/desert_17.jpg","","","","",""
"","","","","","image-keyboard-response","275","2.0.0","283132","pgo4a3w2130","tiger","null","stimuli/coast_57.jpg","null","coast","L","non-repeat","null","236","stimuli/coast_57.jpg","","","","",""
"","","","","","image-keyboard-response","276","2.0.0","284138","pgo4a3w2130","tiger","null","stimuli/bathroom_11.jpg","null","bathroom","G","non-repeat","null","237","stimuli/bathroom_11.jpg","","","","",""
"","","","","","image-keyboard-response","277","2.0.0","285151","pgo4a3w2130","tiger","null","stimuli/kitchen_15.jpg","null","kitchen","H","non-repeat","null","238","stimuli/kitchen_15.jpg","","","","",""
"","","","","","image-keyboard-response","278","2.0.0","286164","pgo4a3w2130","tiger","null","stimuli/bar_67.jpg","null","bar","I","non-repeat","null","239","stimuli/bar_67.jpg","","","","",""
"","","","","","image-keyboard-response","279","2.0.0","287175","pgo4a3w2130","tiger","null","stimuli/bridge_36.jpg","null","bridge","A","non-repeat","null","240","stimuli/bridge_36.jpg","","","","",""
"","","","","","image-keyboard-response","280","2.0.0","288184","pgo4a3w2130","tiger","null","stimuli/street_58.jpg","null","street","B","non-repeat","null","241","stimuli/street_58.jpg","","","","",""
"","","","","","image-keyboard-response","281","2.0.0","289197","pgo4a3w2130","tiger","null","stimuli/gym_53.jpg","null","gym","C","non-repeat","null","242","stimuli/gym_53.jpg","","","","",""
"","","","","","image-keyboard-response","282","2.0.0","290209","pgo4a3w2130","tiger","null","stimuli/stream_46.jpg","null","stream","D","non-repeat","null","243","stimuli/stream_46.jpg","","","","",""
"","","","","","image-keyboard-response","283","2.0.0","291219","pgo4a3w2130","tiger","663","stimuli/stream_46.jpg"," ","stream","D","repeat"," ","243","","","","","",""
"","","","","","image-keyboard-response","284","2.0.0","292227","pgo4a3w2130","tiger","null","stimuli/field_54.jpg","null","field","E","non-repeat","null","244","stimuli/field_54.jpg","","","","",""
"","","","","","image-keyboard-response","285","2.0.0","293238","pgo4a3w2130","tiger","null","stimuli/woods_58.jpg","null","woods","F","non-repeat","null","245","stimuli/woods_58.jpg","","","","",""
"","","","","","image-keyboard-response","286","2.0.0","294253","pgo4a3w2130","tiger","null","stimuli/bathroom_11.jpg","null","bathroom","G","non-repeat","null","246","stimuli/bathroom_11.jpg","","","","",""
"","","","","","image-keyboard-response","287","2.0.0","295268","pgo4a3w2130","tiger","null","stimuli/kitchen_15.jpg","null","kitchen","H","non-repeat","null","247","stimuli/kitchen_15.jpg","","","","",""
"","","","","","image-keyboard-response","288","2.0.0","296280","pgo4a3w2130","tiger","null","stimuli/bar_67.jpg","null","bar","I","non-repeat","null","248","stimuli/bar_67.jpg","","","","",""
"","","","","","image-keyboard-response","289","2.0.0","297288","pgo4a3w2130","tiger","null","stimuli/bridge_36.jpg","null","bridge","A","non-repeat","null","249","stimuli/bridge_36.jpg","","","","",""
"","","","","","image-keyboard-response","290","2.0.0","298295","pgo4a3w2130","tiger","null","stimuli/street_58.jpg","null","street","B","non-repeat","null","250","stimuli/street_58.jpg","","","","",""
"","","","","","image-keyboard-response","291","2.0.0","299301","pgo4a3w2130","tiger","null","stimuli/gym_53.jpg","null","gym","C","non-repeat","null","251","stimuli/gym_53.jpg","","","","",""
"","","","","","image-keyboard-response","292","2.0.0","300311","pgo4a3w2130","tiger","null","stimuli/playground_6.jpg","null","playground","J","non-repeat","null","252","stimuli/playground_6.jpg","","","","",""
"","","","","","image-keyboard-response","293","2.0.0","301316","pgo4a3w2130","tiger","null","stimuli/desert_17.jpg","null","desert","K","non-repeat","null","253","stimuli/desert_17.jpg","","","","",""
"","","","","","image-keyboard-response","294","2.0.0","302328","pgo4a3w2130","tiger","null","stimuli/coast_57.jpg","null","coast","L","non-repeat","null","254","stimuli/coast_57.jpg","","","","",""
"","","","","","image-keyboard-response","295","2.0.0","303340","pgo4a3w2130","tiger","null","stimuli/bathroom_11.jpg","null","bathroom","G","non-repeat","null","255","stimuli/bathroom_11.jpg","","","","",""
"","","","","","image-keyboard-response","296","2.0.0","304349","pgo4a3w2130","tiger","null","stimuli/kitchen_15.jpg","null","kitchen","H","non-repeat","null","256","stimuli/kitchen_15.jpg","","","","",""
"","","","","","image-keyboard-response","297","2.0.0","305362","pgo4a3w2130","tiger","null","stimuli/bar_67.jpg","null","bar","I","non-repeat","null","257","stimuli/bar_67.jpg","","","","",""
"","","","","","image-keyboard-response","298","2.0.0","306375","pgo4a3w2130","tiger","null","stimuli/playground_6.jpg","null","playground","J","non-repeat","null","258","stimuli/playground_6.jpg","","","","",""
"","","","","","image-keyboard-response","299","2.0.0","307384","pgo4a3w2130","tiger","null","stimuli/desert_17.jpg","null","desert","K","non-repeat","null","259","stimuli/desert_17.jpg","","","","",""
"","","","","","image-keyboard-response","300","2.0.0","308385","pgo4a3w2130","tiger","null","stimuli/coast_57.jpg","null","coast","L","non-repeat","null","260","stimuli/coast_57.jpg","","","","",""
"","","","","","image-keyboard-response","301","2.0.0","309388","pgo4a3w2130","tiger","null","stimuli/bridge_36.jpg","null","bridge","A","non-repeat","null","261","stimuli/bridge_36.jpg","","","","",""
"","","","","","image-keyboard-response","302","2.0.0","310391","pgo4a3w2130","tiger","null","stimuli/street_58.jpg","null","street","B","non-repeat","null","262","stimuli/street_58.jpg","","","","",""
"","","","","","image-keyboard-response","303","2.0.0","311403","pgo4a3w2130","tiger","null","stimuli/gym_53.jpg","null","gym","C","non-repeat","null","263","stimuli/gym_53.jpg","","","","",""
"","","","","","image-keyboard-response","304","2.0.0","312415","pgo4a3w2130","tiger","null","stimuli/playground_6.jpg","null","playground","J","non-repeat","null","264","stimuli/playground_6.jpg","","","","",""
"","","","","","image-keyboard-response","305","2.0.0","313424","pgo4a3w2130","tiger","null","stimuli/desert_17.jpg","null","desert","K","non-repeat","null","265","stimuli/desert_17.jpg","","","","",""
"","","","","","image-keyboard-response","306","2.0.0","314433","pgo4a3w2130","tiger","null","stimuli/coast_57.jpg","null","coast","L","non-repeat","null","266","stimuli/coast_57.jpg","","","","",""
"","","","","","image-keyboard-response","307","2.0.0","315442","pgo4a3w2130","tiger","null","stimuli/coast_57.jpg","null","coast","L","repeat"," ","266","","","","","",""
"","","","","","image-keyboard-response","308","2.0.0","316454","pgo4a3w2130","tiger","null","stimuli/bridge_36.jpg","null","bridge","A","non-repeat","null","267","stimuli/bridge_36.jpg","","","","",""
"","","","","","image-keyboard-response","309","2.0.0","317463","pgo4a3w2130","tiger","null","stimuli/street_58.jpg","null","street","B","non-repeat","null","268","stimuli/street_58.jpg","","","","",""
"","","","","","image-keyboard-response","310","2.0.0","318466","pgo4a3w2130","tiger","null","stimuli/gym_53.jpg","null","gym","C","non-repeat","null","269","stimuli/gym_53.jpg","","","","",""
"","","","","","image-keyboard-response","311","2.0.0","319469","pgo4a3w2130","tiger","null","stimuli/playground_6.jpg","null","playground","J","non-repeat","null","270","stimuli/playground_6.jpg","","","","",""
"","","","","","image-keyboard-response","312","2.0.0","320480","pgo4a3w2130","tiger","null","stimuli/desert_17.jpg","null","desert","K","non-repeat","null","271","stimuli/desert_17.jpg","","","","",""
"","","","","","image-keyboard-response","313","2.0.0","321490","pgo4a3w2130","tiger","null","stimuli/coast_57.jpg","null","coast","L","non-repeat","null","272","stimuli/coast_57.jpg","","","","",""
"","","","","","image-keyboard-response","314","2.0.0","322506","pgo4a3w2130","tiger","null","stimuli/stream_46.jpg","null","stream","D","non-repeat","null","273","stimuli/stream_46.jpg","","","","",""
"","","","","","image-keyboard-response","315","2.0.0","323514","pgo4a3w2130","tiger","341","stimuli/stream_46.jpg"," ","stream","D","repeat"," ","273","","","","","",""
"","","","","","image-keyboard-response","316","2.0.0","324525","pgo4a3w2130","tiger","null","stimuli/field_54.jpg","null","field","E","non-repeat","null","274","stimuli/field_54.jpg","","","","",""
"","","","","","image-keyboard-response","317","2.0.0","325537","pgo4a3w2130","tiger","null","stimuli/woods_58.jpg","null","woods","F","non-repeat","null","275","stimuli/woods_58.jpg","","","","",""
"","","","","","image-keyboard-response","318","2.0.0","326550","pgo4a3w2130","tiger","null","stimuli/bathroom_11.jpg","null","bathroom","G","non-repeat","null","276","stimuli/bathroom_11.jpg","","","","",""
"","","","","","image-keyboard-response","319","2.0.0","327564","pgo4a3w2130","tiger","null","stimuli/kitchen_15.jpg","null","kitchen","H","non-repeat","null","277","stimuli/kitchen_15.jpg","","","","",""
"","","","","","image-keyboard-response","320","2.0.0","328571","pgo4a3w2130","tiger","null","stimuli/bar_67.jpg","null","bar","I","non-repeat","null","278","stimuli/bar_67.jpg","","","","",""
"","","","","","image-keyboard-response","321","2.0.0","329584","pgo4a3w2130","tiger","null","stimuli/playground_6.jpg","null","playground","J","non-repeat","null","279","stimuli/playground_6.jpg","","","","",""
"","","","","","image-keyboard-response","322","2.0.0","330597","pgo4a3w2130","tiger","null","stimuli/desert_17.jpg","null","desert","K","non-repeat","null","280","stimuli/desert_17.jpg","","","","",""
"","","","","","image-keyboard-response","323","2.0.0","331611","pgo4a3w2130","tiger","null","stimuli/coast_57.jpg","null","coast","L","non-repeat","null","281","stimuli/coast_57.jpg","","","","",""
"","","","","","image-keyboard-response","324","2.0.0","332623","pgo4a3w2130","tiger","null","stimuli/bridge_36.jpg","null","bridge","A","non-repeat","null","282","stimuli/bridge_36.jpg","","","","",""
"","","","","","image-keyboard-response","325","2.0.0","333632","pgo4a3w2130","tiger","null","stimuli/street_58.jpg","null","street","B","non-repeat","null","283","stimuli/street_58.jpg","","","","",""
"","","","","","image-keyboard-response","326","2.0.0","334642","pgo4a3w2130","tiger","null","stimuli/gym_53.jpg","null","gym","C","non-repeat","null","284","stimuli/gym_53.jpg","","","","",""
"","","","","","image-keyboard-response","327","2.0.0","335654","pgo4a3w2130","tiger","null","stimuli/stream_46.jpg","null","stream","D","non-repeat","null","285","stimuli/stream_46.jpg","","","","",""
"","","","","","image-keyboard-response","328","2.0.0","336665","pgo4a3w2130","tiger","null","stimuli/field_54.jpg","null","field","E","non-repeat","null","286","stimuli/field_54.jpg","","","","",""
"","","","","","image-keyboard-response","329","2.0.0","337678","pgo4a3w2130","tiger","null","stimuli/woods_58.jpg","null","woods","F","non-repeat","null","287","stimuli/woods_58.jpg","","","","",""
"","","","","","image-keyboard-response","330","2.0.0","338690","pgo4a3w2130","tiger","721","stimuli/woods_58.jpg"," ","woods","F","repeat"," ","287","","","","","",""
"","","","","","image-keyboard-response","331","2.0.0","339700","pgo4a3w2130","tiger","null","stimuli/bridge_36.jpg","null","bridge","A","non-repeat","null","288","stimuli/bridge_36.jpg","","","","",""
"","","","","","image-keyboard-response","332","2.0.0","340707","pgo4a3w2130","tiger","null","stimuli/street_58.jpg","null","street","B","non-repeat","null","289","stimuli/street_58.jpg","","","","",""
"","","","","","image-keyboard-response","333","2.0.0","341719","pgo4a3w2130","tiger","null","stimuli/gym_53.jpg","null","gym","C","non-repeat","null","290","stimuli/gym_53.jpg","","","","",""
"","","","","","image-keyboard-response","334","2.0.0","342733","pgo4a3w2130","tiger","null","stimuli/bathroom_11.jpg","null","bathroom","G","non-repeat","null","291","stimuli/bathroom_11.jpg","","","","",""
"","","","","","image-keyboard-response","335","2.0.0","343745","pgo4a3w2130","tiger","null","stimuli/kitchen_15.jpg","null","kitchen","H","non-repeat","null","292","stimuli/kitchen_15.jpg","","","","",""
"","","","","","image-keyboard-response","336","2.0.0","344756","pgo4a3w2130","tiger","null","stimuli/bar_67.jpg","null","bar","I","non-repeat","null","293","stimuli/bar_67.jpg","","","","",""
"","","","","","image-keyboard-response","337","2.0.0","345769","pgo4a3w2130","tiger","null","stimuli/stream_46.jpg","null","stream","D","non-repeat","null","294","stimuli/stream_46.jpg","","","","",""
"","","","","","image-keyboard-response","338","2.0.0","346778","pgo4a3w2130","tiger","null","stimuli/field_54.jpg","null","field","E","non-repeat","null","295","stimuli/field_54.jpg","","","","",""
"","","","","","image-keyboard-response","339","2.0.0","347787","pgo4a3w2130","tiger","null","stimuli/woods_58.jpg","null","woods","F","non-repeat","null","296","stimuli/woods_58.jpg","","","","",""
"","","","","","image-keyboard-response","340","2.0.0","348798","pgo4a3w2130","tiger","null","stimuli/bathroom_11.jpg","null","bathroom","G","non-repeat","null","297","stimuli/bathroom_11.jpg","","","","",""
"","","","","","image-keyboard-response","341","2.0.0","349810","pgo4a3w2130","tiger","null","stimuli/kitchen_15.jpg","null","kitchen","H","non-repeat","null","298","stimuli/kitchen_15.jpg","","","","",""
"","","","","","image-keyboard-response","342","2.0.0","350825","pgo4a3w2130","tiger","null","stimuli/bar_67.jpg","null","bar","I","non-repeat","null","299","stimuli/bar_67.jpg","","","","",""
"","","","","","image-keyboard-response","343","2.0.0","351832","pgo4a3w2130","tiger","null","stimuli/bridge_36.jpg","null","bridge","A","non-repeat","null","300","stimuli/bridge_36.jpg","","","","",""
"","","","","","image-keyboard-response","344","2.0.0","352845","pgo4a3w2130","tiger","583","stimuli/bridge_36.jpg"," ","bridge","A","repeat"," ","300","","","","","",""
"","","","","","image-keyboard-response","345","2.0.0","353857","pgo4a3w2130","tiger","null","stimuli/street_58.jpg","null","street","B","non-repeat","null","301","stimuli/street_58.jpg","","","","",""
"","","","","","image-keyboard-response","346","2.0.0","354872","pgo4a3w2130","tiger","null","stimuli/gym_53.jpg","null","gym","C","non-repeat","null","302","stimuli/gym_53.jpg","","","","",""
"","","","","","image-keyboard-response","347","2.0.0","355881","pgo4a3w2130","tiger","null","stimuli/playground_6.jpg","null","playground","J","non-repeat","null","303","stimuli/playground_6.jpg","","","","",""
"","","","","","image-keyboard-response","348","2.0.0","356890","pgo4a3w2130","tiger","553","stimuli/playground_6.jpg"," ","playground","J","repeat"," ","303","","","","","",""
"","","","","","image-keyboard-response","349","2.0.0","357904","pgo4a3w2130","tiger","null","stimuli/desert_17.jpg","null","desert","K","non-repeat","null","304","stimuli/desert_17.jpg","","","","",""
"","","","","","image-keyboard-response","350","2.0.0","358914","pgo4a3w2130","tiger","null","stimuli/coast_57.jpg","null","coast","L","non-repeat","null","305","stimuli/coast_57.jpg","","","","",""
"","","","","","image-keyboard-response","351","2.0.0","359923","pgo4a3w2130","tiger","null","stimuli/bathroom_11.jpg","null","bathroom","G","non-repeat","null","306","stimuli/bathroom_11.jpg","","","","",""
"","","","","","image-keyboard-response","352","2.0.0","360935","pgo4a3w2130","tiger","null","stimuli/kitchen_15.jpg","null","kitchen","H","non-repeat","null","307","stimuli/kitchen_15.jpg","","","","",""
"","","","","","image-keyboard-response","353","2.0.0","361948","pgo4a3w2130","tiger","null","stimuli/bar_67.jpg","null","bar","I","non-repeat","null","308","stimuli/bar_67.jpg","","","","",""
"","","","","","image-keyboard-response","354","2.0.0","362958","pgo4a3w2130","tiger","null","stimuli/playground_6.jpg","null","playground","J","non-repeat","null","309","stimuli/playground_6.jpg","","","","",""
"","","","","","image-keyboard-response","355","2.0.0","364826","pgo4a3w2130","tiger","null","stimuli/desert_17.jpg","null","desert","K","non-repeat","null","310","stimuli/desert_17.jpg","","","","",""
"","","","","","image-keyboard-response","356","2.0.0","366820","pgo4a3w2130","tiger","null","stimuli/coast_57.jpg","null","coast","L","non-repeat","null","311","stimuli/coast_57.jpg","","","","",""
"","","","","","image-keyboard-response","357","2.0.0","368708","pgo4a3w2130","tiger","null","stimuli/stream_46.jpg","null","stream","D","non-repeat","null","312","stimuli/stream_46.jpg","","","","",""
"","","","","","image-keyboard-response","358","2.0.0","369723","pgo4a3w2130","tiger","null","stimuli/stream_46.jpg","null","stream","D","repeat"," ","312","","","","","",""
"","","","","","image-keyboard-response","359","2.0.0","370732","pgo4a3w2130","tiger","null","stimuli/field_54.jpg","null","field","E","non-repeat","null","313","stimuli/field_54.jpg","","","","",""
"","","","","","image-keyboard-response","360","2.0.0","371736","pgo4a3w2130","tiger","null","stimuli/woods_58.jpg","null","woods","F","non-repeat","null","314","stimuli/woods_58.jpg","","","","",""
"","","","","","image-keyboard-response","361","2.0.0","372743","pgo4a3w2130","tiger","null","stimuli/bathroom_11.jpg","null","bathroom","G","non-repeat","null","315","stimuli/bathroom_11.jpg","","","","",""
"","","","","","image-keyboard-response","362","2.0.0","373752","pgo4a3w2130","tiger","null","stimuli/kitchen_15.jpg","null","kitchen","H","non-repeat","null","316","stimuli/kitchen_15.jpg","","","","",""
"","","","","","image-keyboard-response","363","2.0.0","374764","pgo4a3w2130","tiger","null","stimuli/bar_67.jpg","null","bar","I","non-repeat","null","317","stimuli/bar_67.jpg","","","","",""
"","","","","","image-keyboard-response","364","2.0.0","375776","pgo4a3w2130","tiger","null","stimuli/playground_6.jpg","null","playground","J","non-repeat","null","318","stimuli/playground_6.jpg","","","","",""
"","","","","","image-keyboard-response","365","2.0.0","376781","pgo4a3w2130","tiger","null","stimuli/desert_17.jpg","null","desert","K","non-repeat","null","319","stimuli/desert_17.jpg","","","","",""
"","","","","","image-keyboard-response","366","2.0.0","377790","pgo4a3w2130","tiger","null","stimuli/coast_57.jpg","null","coast","L","non-repeat","null","320","stimuli/coast_57.jpg","","","","",""
"","","","","","image-keyboard-response","367","2.0.0","378800","pgo4a3w2130","tiger","null","stimuli/bathroom_11.jpg","null","bathroom","G","non-repeat","null","321","stimuli/bathroom_11.jpg","","","","",""
"","","","","","image-keyboard-response","368","2.0.0","379812","pgo4a3w2130","tiger","null","stimuli/kitchen_15.jpg","null","kitchen","H","non-repeat","null","322","stimuli/kitchen_15.jpg","","","","",""
"","","","","","image-keyboard-response","369","2.0.0","380828","pgo4a3w2130","tiger","null","stimuli/bar_67.jpg","null","bar","I","non-repeat","null","323","stimuli/bar_67.jpg","","","","",""
"","","","","","image-keyboard-response","370","2.0.0","381834","pgo4a3w2130","tiger","null","stimuli/bridge_36.jpg","null","bridge","A","non-repeat","null","324","stimuli/bridge_36.jpg","","","","",""
"","","","","","image-keyboard-response","371","2.0.0","382846","pgo4a3w2130","tiger","null","stimuli/street_58.jpg","null","street","B","non-repeat","null","325","stimuli/street_58.jpg","","","","",""
"","","","","","image-keyboard-response","372","2.0.0","383859","pgo4a3w2130","tiger","null","stimuli/gym_53.jpg","null","gym","C","non-repeat","null","326","stimuli/gym_53.jpg","","","","",""
"","","","","","image-keyboard-response","373","2.0.0","384871","pgo4a3w2130","tiger","584","stimuli/gym_53.jpg"," ","gym","C","repeat"," ","326","","","","","",""
"","","","","","image-keyboard-response","374","2.0.0","385883","pgo4a3w2130","tiger","null","stimuli/playground_6.jpg","null","playground","J","non-repeat","null","327","stimuli/playground_6.jpg","","","","",""
"","","","","","image-keyboard-response","375","2.0.0","386894","pgo4a3w2130","tiger","343","stimuli/playground_6.jpg"," ","playground","J","repeat"," ","327","","","","","",""
"","","","","","image-keyboard-response","376","2.0.0","387908","pgo4a3w2130","tiger","null","stimuli/desert_17.jpg","null","desert","K","non-repeat","null","328","stimuli/desert_17.jpg","","","","",""
"","","","","","image-keyboard-response","377","2.0.0","388921","pgo4a3w2130","tiger","null","stimuli/coast_57.jpg","null","coast","L","non-repeat","null","329","stimuli/coast_57.jpg","","","","",""
"","","","","","image-keyboard-response","378","2.0.0","389932","pgo4a3w2130","tiger","null","stimuli/stream_46.jpg","null","stream","D","non-repeat","null","330","stimuli/stream_46.jpg","","","","",""
"","","","","","image-keyboard-response","379","2.0.0","390938","pgo4a3w2130","tiger","null","stimuli/field_54.jpg","null","field","E","non-repeat","null","331","stimuli/field_54.jpg","","","","",""
"","","","","","image-keyboard-response","380","2.0.0","391950","pgo4a3w2130","tiger","null","stimuli/woods_58.jpg","null","woods","F","non-repeat","null","332","stimuli/woods_58.jpg","","","","",""
"","","","","","image-keyboard-response","381","2.0.0","392961","pgo4a3w2130","tiger","null","stimuli/bathroom_11.jpg","null","bathroom","G","non-repeat","null","333","stimuli/bathroom_11.jpg","","","","",""
"","","","","","image-keyboard-response","382","2.0.0","393972","pgo4a3w2130","tiger","629","stimuli/bathroom_11.jpg"," ","bathroom","G","repeat"," ","333","","","","","",""
"","","","","","image-keyboard-response","383","2.0.0","394981","pgo4a3w2130","tiger","null","stimuli/kitchen_15.jpg","null","kitchen","H","non-repeat","null","334","stimuli/kitchen_15.jpg","","","","",""
"","","","","","image-keyboard-response","384","2.0.0","395993","pgo4a3w2130","tiger","null","stimuli/bar_67.jpg","null","bar","I","non-repeat","null","335","stimuli/bar_67.jpg","","","","",""
"","","","","","image-keyboard-response","385","2.0.0","396999","pgo4a3w2130","tiger","325","stimuli/bar_67.jpg"," ","bar","I","repeat"," ","335","","","","","",""
"","","","","","image-keyboard-response","386","2.0.0","398011","pgo4a3w2130","tiger","null","stimuli/stream_46.jpg","null","stream","D","non-repeat","null","336","stimuli/stream_46.jpg","","","","",""
"","","","","","image-keyboard-response","387","2.0.0","399024","pgo4a3w2130","tiger","null","stimuli/field_54.jpg","null","field","E","non-repeat","null","337","stimuli/field_54.jpg","","","","",""
"","","","","","image-keyboard-response","388","2.0.0","400037","pgo4a3w2130","tiger","null","stimuli/woods_58.jpg","null","woods","F","non-repeat","null","338","stimuli/woods_58.jpg","","","","",""
"","","","","","image-keyboard-response","389","2.0.0","401050","pgo4a3w2130","tiger","null","stimuli/bridge_36.jpg","null","bridge","A","non-repeat","null","339","stimuli/bridge_36.jpg","","","","",""
"","","","","","image-keyboard-response","390","2.0.0","402061","pgo4a3w2130","tiger","null","stimuli/street_58.jpg","null","street","B","non-repeat","null","340","stimuli/street_58.jpg","","","","",""
"","","","","","image-keyboard-response","391","2.0.0","403073","pgo4a3w2130","tiger","null","stimuli/gym_53.jpg","null","gym","C","non-repeat","null","341","stimuli/gym_53.jpg","","","","",""
"","","","","","image-keyboard-response","392","2.0.0","404085","pgo4a3w2130","tiger","null","stimuli/stream_46.jpg","null","stream","D","non-repeat","null","342","stimuli/stream_46.jpg","","","","",""
"","","","","","image-keyboard-response","393","2.0.0","405095","pgo4a3w2130","tiger","476","stimuli/stream_46.jpg"," ","stream","D","repeat"," ","342","","","","","",""
"","","","","","image-keyboard-response","394","2.0.0","406106","pgo4a3w2130","tiger","null","stimuli/field_54.jpg","null","field","E","non-repeat","null","343","stimuli/field_54.jpg","","","","",""
"","","","","","image-keyboard-response","395","2.0.0","407115","pgo4a3w2130","tiger","null","stimuli/woods_58.jpg","null","woods","F","non-repeat","null","344","stimuli/woods_58.jpg","","","","",""
"","","","","","image-keyboard-response","396","2.0.0","408129","pgo4a3w2130","tiger","null","stimuli/playground_6.jpg","null","playground","J","non-repeat","null","345","stimuli/playground_6.jpg","","","","",""
"","","","","","image-keyboard-response","397","2.0.0","409144","pgo4a3w2130","tiger","null","stimuli/desert_17.jpg","null","desert","K","non-repeat","null","346","stimuli/desert_17.jpg","","","","",""
"","","","","","image-keyboard-response","398","2.0.0","410156","pgo4a3w2130","tiger","null","stimuli/coast_57.jpg","null","coast","L","non-repeat","null","347","stimuli/coast_57.jpg","","","","",""
"","","","","","image-keyboard-response","399","2.0.0","411167","pgo4a3w2130","tiger","null","stimuli/stream_46.jpg","null","stream","D","non-repeat","null","348","stimuli/stream_46.jpg","","","","",""
"","","","","","image-keyboard-response","400","2.0.0","412175","pgo4a3w2130","tiger","null","stimuli/field_54.jpg","null","field","E","non-repeat","null","349","stimuli/field_54.jpg","","","","",""
"","","","","","image-keyboard-response","401","2.0.0","413185","pgo4a3w2130","tiger","null","stimuli/woods_58.jpg","null","woods","F","non-repeat","null","350","stimuli/woods_58.jpg","","","","",""
"","","","","","image-keyboard-response","402","2.0.0","414193","pgo4a3w2130","tiger","null","stimuli/bathroom_11.jpg","null","bathroom","G","non-repeat","null","351","stimuli/bathroom_11.jpg","","","","",""
"","","","","","image-keyboard-response","403","2.0.0","415205","pgo4a3w2130","tiger","null","stimuli/kitchen_15.jpg","null","kitchen","H","non-repeat","null","352","stimuli/kitchen_15.jpg","","","","",""
"","","","","","image-keyboard-response","404","2.0.0","416217","pgo4a3w2130","tiger","null","stimuli/bar_67.jpg","null","bar","I","non-repeat","null","353","stimuli/bar_67.jpg","","","","",""
"","","","","","image-keyboard-response","405","2.0.0","417229","pgo4a3w2130","tiger","null","stimuli/stream_46.jpg","null","stream","D","non-repeat","null","354","stimuli/stream_46.jpg","","","","",""
"","","","","","image-keyboard-response","406","2.0.0","418240","pgo4a3w2130","tiger","null","stimuli/field_54.jpg","null","field","E","non-repeat","null","355","stimuli/field_54.jpg","","","","",""
"","","","","","image-keyboard-response","407","2.0.0","419248","pgo4a3w2130","tiger","null","stimuli/woods_58.jpg","null","woods","F","non-repeat","null","356","stimuli/woods_58.jpg","","","","",""
"","","","","","image-keyboard-response","408","2.0.0","420262","pgo4a3w2130","tiger","null","stimuli/bridge_36.jpg","null","bridge","A","non-repeat","null","357","stimuli/bridge_36.jpg","","","","",""
"","","","","","image-keyboard-response","409","2.0.0","421274","pgo4a3w2130","tiger","null","stimuli/street_58.jpg","null","street","B","non-repeat","null","358","stimuli/street_58.jpg","","","","",""
"","","","","","image-keyboard-response","410","2.0.0","422277","pgo4a3w2130","tiger","null","stimuli/gym_53.jpg","null","gym","C","non-repeat","null","359","stimuli/gym_53.jpg","","","","",""
"","","","","","image-keyboard-response","411","2.0.0","423288","pgo4a3w2130","tiger","null","stimuli/playground_6.jpg","null","playground","J","non-repeat","null","360","stimuli/playground_6.jpg","","","","",""
"","","","","","image-keyboard-response","412","2.0.0","424299","pgo4a3w2130","tiger","null","stimuli/desert_17.jpg","null","desert","K","non-repeat","null","361","stimuli/desert_17.jpg","","","","",""
"","","","","","image-keyboard-response","413","2.0.0","425312","pgo4a3w2130","tiger","null","stimuli/coast_57.jpg","null","coast","L","non-repeat","null","362","stimuli/coast_57.jpg","","","","",""
"","","","","","image-keyboard-response","414","2.0.0","426318","pgo4a3w2130","tiger","null","stimuli/bathroom_11.jpg","null","bathroom","G","non-repeat","null","363","stimuli/bathroom_11.jpg","","","","",""
"","","","","","image-keyboard-response","415","2.0.0","427332","pgo4a3w2130","tiger","null","stimuli/bathroom_11.jpg","null","bathroom","G","repeat"," ","363","","","","","",""
"","","","","","image-keyboard-response","416","2.0.0","428344","pgo4a3w2130","tiger","null","stimuli/kitchen_15.jpg","null","kitchen","H","non-repeat","null","364","stimuli/kitchen_15.jpg","","","","",""
"","","","","","image-keyboard-response","417","2.0.0","429357","pgo4a3w2130","tiger","null","stimuli/bar_67.jpg","null","bar","I","non-repeat","null","365","stimuli/bar_67.jpg","","","","",""
"","","","","","image-keyboard-response","418","2.0.0","430371","pgo4a3w2130","tiger","572","stimuli/bar_67.jpg"," ","bar","I","repeat"," ","365","","","","","",""
"","","","","","image-keyboard-response","419","2.0.0","431382","pgo4a3w2130","tiger","null","stimuli/bridge_36.jpg","null","bridge","A","non-repeat","null","366","stimuli/bridge_36.jpg","","","","",""
"","","","","","image-keyboard-response","420","2.0.0","432393","pgo4a3w2130","tiger","null","stimuli/street_58.jpg","null","street","B","non-repeat","null","367","stimuli/street_58.jpg","","","","",""
"","","","","","image-keyboard-response","421","2.0.0","433401","pgo4a3w2130","tiger","null","stimuli/gym_53.jpg","null","gym","C","non-repeat","null","368","stimuli/gym_53.jpg","","","","",""
"","","","","","image-keyboard-response","422","2.0.0","434412","pgo4a3w2130","tiger","null","stimuli/bathroom_11.jpg","null","bathroom","G","non-repeat","null","369","stimuli/bathroom_11.jpg","","","","",""
"","","","","","image-keyboard-response","423","2.0.0","435427","pgo4a3w2130","tiger","377","stimuli/bathroom_11.jpg"," ","bathroom","G","repeat"," ","369","","","","","",""
"","","","","","image-keyboard-response","424","2.0.0","436437","pgo4a3w2130","tiger","null","stimuli/kitchen_15.jpg","null","kitchen","H","non-repeat","null","370","stimuli/kitchen_15.jpg","","","","",""
"","","","","","image-keyboard-response","425","2.0.0","437447","pgo4a3w2130","tiger","null","stimuli/bar_67.jpg","null","bar","I","non-repeat","null","371","stimuli/bar_67.jpg","","","","",""
"","","","","","image-keyboard-response","426","2.0.0","438453","pgo4a3w2130","tiger","null","stimuli/playground_6.jpg","null","playground","J","non-repeat","null","372","stimuli/playground_6.jpg","","","","",""
"","","","","","image-keyboard-response","427","2.0.0","439820","pgo4a3w2130","tiger","null","stimuli/desert_17.jpg","null","desert","K","non-repeat","null","373","stimuli/desert_17.jpg","","","","",""
"","","","","","image-keyboard-response","428","2.0.0","441817","pgo4a3w2130","tiger","null","stimuli/coast_57.jpg","null","coast","L","non-repeat","null","374","stimuli/coast_57.jpg","","","","",""
"","","","","","image-keyboard-response","429","2.0.0","442828","pgo4a3w2130","tiger","null","stimuli/bathroom_11.jpg","null","bathroom","G","non-repeat","null","375","stimuli/bathroom_11.jpg","","","","",""
"","","","","","image-keyboard-response","430","2.0.0","444822","pgo4a3w2130","tiger","null","stimuli/kitchen_15.jpg","null","kitchen","H","non-repeat","null","376","stimuli/kitchen_15.jpg","","","","",""
"","","","","","image-keyboard-response","431","2.0.0","446813","pgo4a3w2130","tiger","null","stimuli/bar_67.jpg","null","bar","I","non-repeat","null","377","stimuli/bar_67.jpg","","","","",""
"","","","","","image-keyboard-response","432","2.0.0","447821","pgo4a3w2130","tiger","null","stimuli/playground_6.jpg","null","playground","J","non-repeat","null","378","stimuli/playground_6.jpg","","","","",""
"","","","","","image-keyboard-response","433","2.0.0","449216","pgo4a3w2130","tiger","null","stimuli/desert_17.jpg","null","desert","K","non-repeat","null","379","stimuli/desert_17.jpg","","","","",""
"","","","","","image-keyboard-response","434","2.0.0","450234","pgo4a3w2130","tiger","null","stimuli/coast_57.jpg","null","coast","L","non-repeat","null","380","stimuli/coast_57.jpg","","","","",""
"","","","","","image-keyboard-response","435","2.0.0","451243","pgo4a3w2130","tiger","852","stimuli/bridge_36.jpg"," ","bridge","A","non-repeat","null","381","stimuli/bridge_36.jpg","","","","",""
"","","","","","image-keyboard-response","436","2.0.0","452255","pgo4a3w2130","tiger","null","stimuli/bridge_36.jpg","null","bridge","A","repeat"," ","381","","","","","",""
"","","","","","image-keyboard-response","437","2.0.0","453266","pgo4a3w2130","tiger","null","stimuli/street_58.jpg","null","street","B","non-repeat","null","382","stimuli/street_58.jpg","","","","",""
"","","","","","image-keyboard-response","438","2.0.0","454276","pgo4a3w2130","tiger","null","stimuli/gym_53.jpg","null","gym","C","non-repeat","null","383","stimuli/gym_53.jpg","","","","",""
"","","","","","image-keyboard-response","439","2.0.0","455286","pgo4a3w2130","tiger","null","stimuli/playground_6.jpg","null","playground","J","non-repeat","null","384","stimuli/playground_6.jpg","","","","",""
"","","","","","image-keyboard-response","440","2.0.0","456300","pgo4a3w2130","tiger","null","stimuli/desert_17.jpg","null","desert","K","non-repeat","null","385","stimuli/desert_17.jpg","","","","",""
"","","","","","image-keyboard-response","441","2.0.0","457309","pgo4a3w2130","tiger","null","stimuli/coast_57.jpg","null","coast","L","non-repeat","null","386","stimuli/coast_57.jpg","","","","",""
"","","","","","image-keyboard-response","442","2.0.0","458319","pgo4a3w2130","tiger","null","stimuli/bathroom_11.jpg","null","bathroom","G","non-repeat","null","387","stimuli/bathroom_11.jpg","","","","",""
"","","","","","image-keyboard-response","443","2.0.0","459331","pgo4a3w2130","tiger","null","stimuli/kitchen_15.jpg","null","kitchen","H","non-repeat","null","388","stimuli/kitchen_15.jpg","","","","",""
"","","","","","image-keyboard-response","444","2.0.0","460340","pgo4a3w2130","tiger","null","stimuli/bar_67.jpg","null","bar","I","non-repeat","null","389","stimuli/bar_67.jpg","","","","",""
"","","","","","image-keyboard-response","445","2.0.0","461351","pgo4a3w2130","tiger","307","stimuli/bar_67.jpg"," ","bar","I","repeat"," ","389","","","","","",""
"","","","","","image-keyboard-response","446","2.0.0","462362","pgo4a3w2130","tiger","null","stimuli/stream_46.jpg","null","stream","D","non-repeat","null","390","stimuli/stream_46.jpg","","","","",""
"","","","","","image-keyboard-response","447","2.0.0","463371","pgo4a3w2130","tiger","null","stimuli/field_54.jpg","null","field","E","non-repeat","null","391","stimuli/field_54.jpg","","","","",""
"","","","","","image-keyboard-response","448","2.0.0","464384","pgo4a3w2130","tiger","null","stimuli/woods_58.jpg","null","woods","F","non-repeat","null","392","stimuli/woods_58.jpg","","","","",""
"","","","","","image-keyboard-response","449","2.0.0","465399","pgo4a3w2130","tiger","null","stimuli/bridge_36.jpg","null","bridge","A","non-repeat","null","393","stimuli/bridge_36.jpg","","","","",""
"","","","","","image-keyboard-response","450","2.0.0","466410","pgo4a3w2130","tiger","null","stimuli/street_58.jpg","null","street","B","non-repeat","null","394","stimuli/street_58.jpg","","","","",""
"","","","","","image-keyboard-response","451","2.0.0","467420","pgo4a3w2130","tiger","null","stimuli/gym_53.jpg","null","gym","C","non-repeat","null","395","stimuli/gym_53.jpg","","","","",""
"","","","","","image-keyboard-response","452","2.0.0","468434","pgo4a3w2130","tiger","null","stimuli/playground_6.jpg","null","playground","J","non-repeat","null","396","stimuli/playground_6.jpg","","","","",""
"","","","","","image-keyboard-response","453","2.0.0","469447","pgo4a3w2130","tiger","null","stimuli/desert_17.jpg","null","desert","K","non-repeat","null","397","stimuli/desert_17.jpg","","","","",""
"","","","","","image-keyboard-response","454","2.0.0","470458","pgo4a3w2130","tiger","null","stimuli/coast_57.jpg","null","coast","L","non-repeat","null","398","stimuli/coast_57.jpg","","","","",""
"","","","","","image-keyboard-response","455","2.0.0","471466","pgo4a3w2130","tiger","null","stimuli/bathroom_11.jpg","null","bathroom","G","non-repeat","null","399","stimuli/bathroom_11.jpg","","","","",""
"","","","","","image-keyboard-response","456","2.0.0","472479","pgo4a3w2130","tiger","null","stimuli/kitchen_15.jpg","null","kitchen","H","non-repeat","null","400","stimuli/kitchen_15.jpg","","","","",""
"","","","","","image-keyboard-response","457","2.0.0","473495","pgo4a3w2130","tiger","null","stimuli/bar_67.jpg","null","bar","I","non-repeat","null","401","stimuli/bar_67.jpg","","","","",""
"","","","","","image-keyboard-response","458","2.0.0","474508","pgo4a3w2130","tiger","null","stimuli/playground_6.jpg","null","playground","J","non-repeat","null","402","stimuli/playground_6.jpg","","","","",""
"","","","","","image-keyboard-response","459","2.0.0","475522","pgo4a3w2130","tiger","null","stimuli/desert_17.jpg","null","desert","K","non-repeat","null","403","stimuli/desert_17.jpg","","","","",""
"","","","","","image-keyboard-response","460","2.0.0","476531","pgo4a3w2130","tiger","null","stimuli/coast_57.jpg","null","coast","L","non-repeat","null","404","stimuli/coast_57.jpg","","","","",""
"","","","","","image-keyboard-response","461","2.0.0","477544","pgo4a3w2130","tiger","null","stimuli/stream_46.jpg","null","stream","D","non-repeat","null","405","stimuli/stream_46.jpg","","","","",""
"","","","","","image-keyboard-response","462","2.0.0","478555","pgo4a3w2130","tiger","null","stimuli/field_54.jpg","null","field","E","non-repeat","null","406","stimuli/field_54.jpg","","","","",""
"","","","","","image-keyboard-response","463","2.0.0","479566","pgo4a3w2130","tiger","null","stimuli/woods_58.jpg","null","woods","F","non-repeat","null","407","stimuli/woods_58.jpg","","","","",""
"","","","","","image-keyboard-response","464","2.0.0","480583","pgo4a3w2130","tiger","null","stimuli/bridge_36.jpg","null","bridge","A","non-repeat","null","408","stimuli/bridge_36.jpg","","","","",""
"","","","","","image-keyboard-response","465","2.0.0","481593","pgo4a3w2130","tiger","null","stimuli/street_58.jpg","null","street","B","non-repeat","null","409","stimuli/street_58.jpg","","","","",""
"","","","","","image-keyboard-response","466","2.0.0","482603","pgo4a3w2130","tiger","null","stimuli/gym_53.jpg","null","gym","C","non-repeat","null","410","stimuli/gym_53.jpg","","","","",""
"","","","","","image-keyboard-response","467","2.0.0","483612","pgo4a3w2130","tiger","null","stimuli/bathroom_11.jpg","null","bathroom","G","non-repeat","null","411","stimuli/bathroom_11.jpg","","","","",""
"","","","","","image-keyboard-response","468","2.0.0","484623","pgo4a3w2130","tiger","null","stimuli/kitchen_15.jpg","null","kitchen","H","non-repeat","null","412","stimuli/kitchen_15.jpg","","","","",""
"","","","","","image-keyboard-response","469","2.0.0","485633","pgo4a3w2130","tiger","null","stimuli/bar_67.jpg","null","bar","I","non-repeat","null","413","stimuli/bar_67.jpg","","","","",""
"","","","","","image-keyboard-response","470","2.0.0","486646","pgo4a3w2130","tiger","null","stimuli/bridge_36.jpg","null","bridge","A","non-repeat","null","414","stimuli/bridge_36.jpg","","","","",""
"","","","","","image-keyboard-response","471","2.0.0","487658","pgo4a3w2130","tiger","622","stimuli/bridge_36.jpg"," ","bridge","A","repeat"," ","414","","","","","",""
"","","","","","image-keyboard-response","472","2.0.0","488671","pgo4a3w2130","tiger","null","stimuli/street_58.jpg","null","street","B","non-repeat","null","415","stimuli/street_58.jpg","","","","",""
"","","","","","image-keyboard-response","473","2.0.0","489681","pgo4a3w2130","tiger","null","stimuli/gym_53.jpg","null","gym","C","non-repeat","null","416","stimuli/gym_53.jpg","","","","",""
"","","","","","image-keyboard-response","474","2.0.0","490692","pgo4a3w2130","tiger","null","stimuli/stream_46.jpg","null","stream","D","non-repeat","null","417","stimuli/stream_46.jpg","","","","",""
"","","","","","image-keyboard-response","475","2.0.0","491704","pgo4a3w2130","tiger","null","stimuli/field_54.jpg","null","field","E","non-repeat","null","418","stimuli/field_54.jpg","","","","",""
"","","","","","image-keyboard-response","476","2.0.0","492711","pgo4a3w2130","tiger","null","stimuli/woods_58.jpg","null","woods","F","non-repeat","null","419","stimuli/woods_58.jpg","","","","",""
"","","","","","image-keyboard-response","477","2.0.0","493727","pgo4a3w2130","tiger","null","stimuli/bathroom_11.jpg","null","bathroom","G","non-repeat","null","420","stimuli/bathroom_11.jpg","","","","",""
"","","","","","image-keyboard-response","478","2.0.0","494738","pgo4a3w2130","tiger","null","stimuli/kitchen_15.jpg","null","kitchen","H","non-repeat","null","421","stimuli/kitchen_15.jpg","","","","",""
"","","","","","image-keyboard-response","479","2.0.0","495750","pgo4a3w2130","tiger","null","stimuli/bar_67.jpg","null","bar","I","non-repeat","null","422","stimuli/bar_67.jpg","","","","",""
"","","","","","image-keyboard-response","480","2.0.0","496759","pgo4a3w2130","tiger","null","stimuli/playground_6.jpg","null","playground","J","non-repeat","null","423","stimuli/playground_6.jpg","","","","",""
"","","","","","image-keyboard-response","481","2.0.0","497763","pgo4a3w2130","tiger","387","stimuli/playground_6.jpg"," ","playground","J","repeat"," ","423","","","","","",""
"","","","","","image-keyboard-response","482","2.0.0","498775","pgo4a3w2130","tiger","null","stimuli/desert_17.jpg","null","desert","K","non-repeat","null","424","stimuli/desert_17.jpg","","","","",""
"","","","","","image-keyboard-response","483","2.0.0","499788","pgo4a3w2130","tiger","null","stimuli/coast_57.jpg","null","coast","L","non-repeat","null","425","stimuli/coast_57.jpg","","","","",""
"","","","","","image-keyboard-response","484","2.0.0","500801","pgo4a3w2130","tiger","525","stimuli/coast_57.jpg"," ","coast","L","repeat"," ","425","","","","","",""
"","","","","","image-keyboard-response","485","2.0.0","501812","pgo4a3w2130","tiger","null","stimuli/bridge_36.jpg","null","bridge","A","non-repeat","null","426","stimuli/bridge_36.jpg","","","","",""
"","","","","","image-keyboard-response","486","2.0.0","502822","pgo4a3w2130","tiger","null","stimuli/street_58.jpg","null","street","B","non-repeat","null","427","stimuli/street_58.jpg","","","","",""
"","","","","","image-keyboard-response","487","2.0.0","503832","pgo4a3w2130","tiger","null","stimuli/gym_53.jpg","null","gym","C","non-repeat","null","428","stimuli/gym_53.jpg","","","","",""
"","","","","","image-keyboard-response","488","2.0.0","504842","pgo4a3w2130","tiger","null","stimuli/stream_46.jpg","null","stream","D","non-repeat","null","429","stimuli/stream_46.jpg","","","","",""
"","","","","","image-keyboard-response","489","2.0.0","505852","pgo4a3w2130","tiger","null","stimuli/field_54.jpg","null","field","E","non-repeat","null","430","stimuli/field_54.jpg","","","","",""
"","","","","","image-keyboard-response","490","2.0.0","506863","pgo4a3w2130","tiger","null","stimuli/woods_58.jpg","null","woods","F","non-repeat","null","431","stimuli/woods_58.jpg","","","","",""
"","","","","","image-keyboard-response","491","2.0.0","507876","pgo4a3w2130","tiger","null","stimuli/bathroom_11.jpg","null","bathroom","G","non-repeat","null","432","stimuli/bathroom_11.jpg","","","","",""
"","","","","","image-keyboard-response","492","2.0.0","508888","pgo4a3w2130","tiger","null","stimuli/kitchen_15.jpg","null","kitchen","H","non-repeat","null","433","stimuli/kitchen_15.jpg","","","","",""
"","","","","","image-keyboard-response","493","2.0.0","509900","pgo4a3w2130","tiger","null","stimuli/bar_67.jpg","null","bar","I","non-repeat","null","434","stimuli/bar_67.jpg","","","","",""
"","","","","","html-keyboard-response","494","2.0.0","522603","pgo4a3w2130","tiger","12700","
    <div style='width:900px;margin: auto;'><p>In the next part of the experiment, we want to see how well you learned the structure in the stream of images.</p>
    <p>On each trial, you will see two sequences of three images, sequence 1 and 2. We will ask you to indicate which sequence was more familiar based on the first part of the experiment.</p>
    <p>Press 1 if the first sequence (sequence 1) felt more familiar. Press 2 if the second sequence (sequence 2) felt more familiar.</p>
    <p>Press any key to begin.</p></div>"," ","","","","","","","","","","",""
"","","","","","html-keyboard-response","495","2.0.0","523611","pgo4a3w2130","tiger","null","<p>Sequence 1</p>","null","","","","","","","","","","",""
"","","","","","image-keyboard-response","496","2.0.0","524621","pgo4a3w2130","tiger","null","stimuli/stream_46.jpg","null","","","","","","","","","","",""
"","","","","","image-keyboard-response","497","2.0.0","525632","pgo4a3w2130","tiger","null","stimuli/field_54.jpg","null","","","","","","","","","","",""
"","","","","","image-keyboard-response","498","2.0.0","526646","pgo4a3w2130","tiger","null","stimuli/woods_58.jpg","null","","","","","","","","","","",""
"","","","","","html-keyboard-response","499","2.0.0","527656","pgo4a3w2130","tiger","null","<p></p>","null","","","","","","","","","","",""
"","","","","","html-keyboard-response","500","2.0.0","528665","pgo4a3w2130","tiger","null","<p>Sequence 2</p>","null","","","","","","","","","","",""
