"success","timeout","failed_images","failed_audio","failed_video","trial_type","trial_index","plugin_version","time_elapsed","random_id","participant","rt","stimulus","response","category","letter","correct_response","correct_response_key","trial_counter","current_image","test_triplet","foil_triplet","correct","firstSequencePaths","secondSequencePaths"
"true","false","[]","[]","[]","preload","0","2.0.0","268","phkpn02qx0l","gazelle","","","","","","","","","","","","","",""
"true","","","","","fullscreen","1","null","4166","phkpn02qx0l","gazelle","2892","","","","","","","","","","","","",""
"","","","","","html-keyboard-response","2","2.0.0","5676","phkpn02qx0l","gazelle","1507","Welcome to the experiment. Press any key to begin."," ","","","","","","","","","","",""
"","","","","","survey-text","3","2.0.0","8347","phkpn02qx0l","gazelle","2666","","{""participant_id"":""gazelle""}","","","","","","","","","","",""
"","","","","","html-keyboard-response","4","2.0.0","15988","phkpn02qx0l","gazelle","7640","
  <p>For this trial, you will see a series of images.</p>
  <p><b>Press the spacebar whenever you see the same image appear twice in a row.</b></p>
  <p>In other words, whenever the same image repeats back to back, press the spacebar.</p>
  <p>Press any key to begin.</p>"," ","","","","","","","","","","",""
"","","","","","image-keyboard-response","5","2.0.0","16993","phkpn02qx0l","gazelle","null","stimuli/coast_56.jpg","null","coast","A","non-repeat","null","0","stimuli/coast_56.jpg","","","","",""
"","","","","","image-keyboard-response","6","2.0.0","17996","phkpn02qx0l","gazelle","null","stimuli/stream_63.jpg","null","stream","B","non-repeat","null","1","stimuli/stream_63.jpg","","","","",""
"","","","","","image-keyboard-response","7","2.0.0","19001","phkpn02qx0l","gazelle","null","stimuli/bar_67.jpg","null","bar","C","non-repeat","null","2","stimuli/bar_67.jpg","","","","",""
"","","","","","image-keyboard-response","8","2.0.0","20003","phkpn02qx0l","gazelle","null","stimuli/bridge_43.jpg","null","bridge","D","non-repeat","null","3","stimuli/bridge_43.jpg","","","","",""
"","","","","","image-keyboard-response","9","2.0.0","21007","phkpn02qx0l","gazelle","null","stimuli/desert_11.jpg","null","desert","E","non-repeat","null","4","stimuli/desert_11.jpg","","","","",""
"","","","","","image-keyboard-response","10","2.0.0","22011","phkpn02qx0l","gazelle","null","stimuli/bathroom_30.jpg","null","bathroom","F","non-repeat","null","5","stimuli/bathroom_30.jpg","","","","",""
"","","","","","image-keyboard-response","11","2.0.0","23015","phkpn02qx0l","gazelle","703","stimuli/bathroom_30.jpg"," ","bathroom","F","repeat"," ","5","","","","","",""
"","","","","","image-keyboard-response","12","2.0.0","24019","phkpn02qx0l","gazelle","null","stimuli/street_56.jpg","null","street","J","non-repeat","null","6","stimuli/street_56.jpg","","","","",""
"","","","","","image-keyboard-response","13","2.0.0","25023","phkpn02qx0l","gazelle","567","stimuli/street_56.jpg"," ","street","J","repeat"," ","6","","","","","",""
"","","","","","image-keyboard-response","14","2.0.0","26027","phkpn02qx0l","gazelle","null","stimuli/woods_35.jpg","null","woods","K","non-repeat","null","7","stimuli/woods_35.jpg","","","","",""
"","","","","","image-keyboard-response","15","2.0.0","27031","phkpn02qx0l","gazelle","null","stimuli/field_68.jpg","null","field","L","non-repeat","null","8","stimuli/field_68.jpg","","","","",""
"","","","","","image-keyboard-response","16","2.0.0","28034","phkpn02qx0l","gazelle","null","stimuli/coast_56.jpg","null","coast","A","non-repeat","null","9","stimuli/coast_56.jpg","","","","",""
"","","","","","image-keyboard-response","17","2.0.0","29038","phkpn02qx0l","gazelle","null","stimuli/stream_63.jpg","null","stream","B","non-repeat","null","10","stimuli/stream_63.jpg","","","","",""
"","","","","","image-keyboard-response","18","2.0.0","30042","phkpn02qx0l","gazelle","null","stimuli/bar_67.jpg","null","bar","C","non-repeat","null","11","stimuli/bar_67.jpg","","","","",""
"","","","","","image-keyboard-response","19","2.0.0","31045","phkpn02qx0l","gazelle","null","stimuli/bridge_43.jpg","null","bridge","D","non-repeat","null","12","stimuli/bridge_43.jpg","","","","",""
"","","","","","image-keyboard-response","20","2.0.0","32050","phkpn02qx0l","gazelle","null","stimuli/desert_11.jpg","null","desert","E","non-repeat","null","13","stimuli/desert_11.jpg","","","","",""
"","","","","","image-keyboard-response","21","2.0.0","33054","phkpn02qx0l","gazelle","null","stimuli/bathroom_30.jpg","null","bathroom","F","non-repeat","null","14","stimuli/bathroom_30.jpg","","","","",""
"","","","","","image-keyboard-response","22","2.0.0","34059","phkpn02qx0l","gazelle","null","stimuli/street_56.jpg","null","street","J","non-repeat","null","15","stimuli/street_56.jpg","","","","",""
"","","","","","image-keyboard-response","23","2.0.0","35063","phkpn02qx0l","gazelle","null","stimuli/woods_35.jpg","null","woods","K","non-repeat","null","16","stimuli/woods_35.jpg","","","","",""
"","","","","","image-keyboard-response","24","2.0.0","36067","phkpn02qx0l","gazelle","null","stimuli/field_68.jpg","null","field","L","non-repeat","null","17","stimuli/field_68.jpg","","","","",""
"","","","","","image-keyboard-response","25","2.0.0","37071","phkpn02qx0l","gazelle","null","stimuli/coast_56.jpg","null","coast","A","non-repeat","null","18","stimuli/coast_56.jpg","","","","",""
"","","","","","image-keyboard-response","26","2.0.0","38075","phkpn02qx0l","gazelle","477","stimuli/coast_56.jpg"," ","coast","A","repeat"," ","18","","","","","",""
"","","","","","image-keyboard-response","27","2.0.0","39079","phkpn02qx0l","gazelle","null","stimuli/stream_63.jpg","null","stream","B","non-repeat","null","19","stimuli/stream_63.jpg","","","","",""
"","","","","","image-keyboard-response","28","2.0.0","40083","phkpn02qx0l","gazelle","null","stimuli/bar_67.jpg","null","bar","C","non-repeat","null","20","stimuli/bar_67.jpg","","","","",""
"","","","","","image-keyboard-response","29","2.0.0","41088","phkpn02qx0l","gazelle","null","stimuli/street_56.jpg","null","street","J","non-repeat","null","21","stimuli/street_56.jpg","","","","",""
"","","","","","image-keyboard-response","30","2.0.0","42092","phkpn02qx0l","gazelle","820","stimuli/street_56.jpg"," ","street","J","repeat"," ","21","","","","","",""
"","","","","","image-keyboard-response","31","2.0.0","43096","phkpn02qx0l","gazelle","null","stimuli/woods_35.jpg","null","woods","K","non-repeat","null","22","stimuli/woods_35.jpg","","","","",""
"","","","","","image-keyboard-response","32","2.0.0","44100","phkpn02qx0l","gazelle","null","stimuli/field_68.jpg","null","field","L","non-repeat","null","23","stimuli/field_68.jpg","","","","",""
"","","","","","image-keyboard-response","33","2.0.0","45103","phkpn02qx0l","gazelle","null","stimuli/bridge_43.jpg","null","bridge","D","non-repeat","null","24","stimuli/bridge_43.jpg","","","","",""
"","","","","","image-keyboard-response","34","2.0.0","46107","phkpn02qx0l","gazelle","null","stimuli/desert_11.jpg","null","desert","E","non-repeat","null","25","stimuli/desert_11.jpg","","","","",""
"","","","","","image-keyboard-response","35","2.0.0","47111","phkpn02qx0l","gazelle","null","stimuli/bathroom_30.jpg","null","bathroom","F","non-repeat","null","26","stimuli/bathroom_30.jpg","","","","",""
"","","","","","image-keyboard-response","36","2.0.0","48114","phkpn02qx0l","gazelle","null","stimuli/coast_56.jpg","null","coast","A","non-repeat","null","27","stimuli/coast_56.jpg","","","","",""
"","","","","","image-keyboard-response","37","2.0.0","49118","phkpn02qx0l","gazelle","null","stimuli/stream_63.jpg","null","stream","B","non-repeat","null","28","stimuli/stream_63.jpg","","","","",""
"","","","","","image-keyboard-response","38","2.0.0","50122","phkpn02qx0l","gazelle","null","stimuli/bar_67.jpg","null","bar","C","non-repeat","null","29","stimuli/bar_67.jpg","","","","",""
"","","","","","image-keyboard-response","39","2.0.0","51126","phkpn02qx0l","gazelle","null","stimuli/bridge_43.jpg","null","bridge","D","non-repeat","null","30","stimuli/bridge_43.jpg","","","","",""
"","","","","","image-keyboard-response","40","2.0.0","52129","phkpn02qx0l","gazelle","null","stimuli/desert_11.jpg","null","desert","E","non-repeat","null","31","stimuli/desert_11.jpg","","","","",""
"","","","","","image-keyboard-response","41","2.0.0","53134","phkpn02qx0l","gazelle","null","stimuli/bathroom_30.jpg","null","bathroom","F","non-repeat","null","32","stimuli/bathroom_30.jpg","","","","",""
"","","","","","image-keyboard-response","42","2.0.0","54138","phkpn02qx0l","gazelle","null","stimuli/street_56.jpg","null","street","J","non-repeat","null","33","stimuli/street_56.jpg","","","","",""
"","","","","","image-keyboard-response","43","2.0.0","55142","phkpn02qx0l","gazelle","null","stimuli/woods_35.jpg","null","woods","K","non-repeat","null","34","stimuli/woods_35.jpg","","","","",""
"","","","","","image-keyboard-response","44","2.0.0","56146","phkpn02qx0l","gazelle","null","stimuli/field_68.jpg","null","field","L","non-repeat","null","35","stimuli/field_68.jpg","","","","",""
"","","","","","image-keyboard-response","45","2.0.0","57149","phkpn02qx0l","gazelle","null","stimuli/coast_56.jpg","null","coast","A","non-repeat","null","36","stimuli/coast_56.jpg","","","","",""
"","","","","","image-keyboard-response","46","2.0.0","58153","phkpn02qx0l","gazelle","null","stimuli/stream_63.jpg","null","stream","B","non-repeat","null","37","stimuli/stream_63.jpg","","","","",""
"","","","","","image-keyboard-response","47","2.0.0","59157","phkpn02qx0l","gazelle","null","stimuli/bar_67.jpg","null","bar","C","non-repeat","null","38","stimuli/bar_67.jpg","","","","",""
"","","","","","image-keyboard-response","48","2.0.0","60161","phkpn02qx0l","gazelle","null","stimuli/street_56.jpg","null","street","J","non-repeat","null","39","stimuli/street_56.jpg","","","","",""
"","","","","","image-keyboard-response","49","2.0.0","61165","phkpn02qx0l","gazelle","null","stimuli/woods_35.jpg","null","woods","K","non-repeat","null","40","stimuli/woods_35.jpg","","","","",""
"","","","","","image-keyboard-response","50","2.0.0","62170","phkpn02qx0l","gazelle","null","stimuli/field_68.jpg","null","field","L","non-repeat","null","41","stimuli/field_68.jpg","","","","",""
"","","","","","image-keyboard-response","51","2.0.0","63174","phkpn02qx0l","gazelle","689","stimuli/field_68.jpg"," ","field","L","repeat"," ","41","","","","","",""
"","","","","","image-keyboard-response","52","2.0.0","64178","phkpn02qx0l","gazelle","null","stimuli/coast_56.jpg","null","coast","A","non-repeat","null","42","stimuli/coast_56.jpg","","","","",""
"","","","","","image-keyboard-response","53","2.0.0","65183","phkpn02qx0l","gazelle","null","stimuli/coast_56.jpg","null","coast","A","repeat"," ","42","","","","","",""
"","","","","","image-keyboard-response","54","2.0.0","66187","phkpn02qx0l","gazelle","null","stimuli/stream_63.jpg","null","stream","B","non-repeat","null","43","stimuli/stream_63.jpg","","","","",""
"","","","","","image-keyboard-response","55","2.0.0","67191","phkpn02qx0l","gazelle","null","stimuli/bar_67.jpg","null","bar","C","non-repeat","null","44","stimuli/bar_67.jpg","","","","",""
"","","","","","image-keyboard-response","56","2.0.0","68195","phkpn02qx0l","gazelle","null","stimuli/street_56.jpg","null","street","J","non-repeat","null","45","stimuli/street_56.jpg","","","","",""
"","","","","","image-keyboard-response","57","2.0.0","69199","phkpn02qx0l","gazelle","606","stimuli/street_56.jpg"," ","street","J","repeat"," ","45","","","","","",""
"","","","","","image-keyboard-response","58","2.0.0","70203","phkpn02qx0l","gazelle","null","stimuli/woods_35.jpg","null","woods","K","non-repeat","null","46","stimuli/woods_35.jpg","","","","",""
"","","","","","image-keyboard-response","59","2.0.0","71207","phkpn02qx0l","gazelle","null","stimuli/field_68.jpg","null","field","L","non-repeat","null","47","stimuli/field_68.jpg","","","","",""
"","","","","","image-keyboard-response","60","2.0.0","72212","phkpn02qx0l","gazelle","616","stimuli/field_68.jpg"," ","field","L","repeat"," ","47","","","","","",""
"","","","","","image-keyboard-response","61","2.0.0","73216","phkpn02qx0l","gazelle","null","stimuli/coast_56.jpg","null","coast","A","non-repeat","null","48","stimuli/coast_56.jpg","","","","",""
"","","","","","image-keyboard-response","62","2.0.0","74220","phkpn02qx0l","gazelle","null","stimuli/stream_63.jpg","null","stream","B","non-repeat","null","49","stimuli/stream_63.jpg","","","","",""
"","","","","","image-keyboard-response","63","2.0.0","75224","phkpn02qx0l","gazelle","null","stimuli/bar_67.jpg","null","bar","C","non-repeat","null","50","stimuli/bar_67.jpg","","","","",""
"","","","","","image-keyboard-response","64","2.0.0","76228","phkpn02qx0l","gazelle","null","stimuli/street_56.jpg","null","street","J","non-repeat","null","51","stimuli/street_56.jpg","","","","",""
"","","","","","image-keyboard-response","65","2.0.0","77232","phkpn02qx0l","gazelle","null","stimuli/woods_35.jpg","null","woods","K","non-repeat","null","52","stimuli/woods_35.jpg","","","","",""
"","","","","","image-keyboard-response","66","2.0.0","78237","phkpn02qx0l","gazelle","null","stimuli/field_68.jpg","null","field","L","non-repeat","null","53","stimuli/field_68.jpg","","","","",""
"","","","","","image-keyboard-response","67","2.0.0","79241","phkpn02qx0l","gazelle","null","stimuli/playground_61.jpg","null","playground","G","non-repeat","null","54","stimuli/playground_61.jpg","","","","",""
"","","","","","image-keyboard-response","68","2.0.0","80244","phkpn02qx0l","gazelle","null","stimuli/gym_9.jpg","null","gym","H","non-repeat","null","55","stimuli/gym_9.jpg","","","","",""
"","","","","","image-keyboard-response","69","2.0.0","81248","phkpn02qx0l","gazelle","null","stimuli/kitchen_5.jpg","null","kitchen","I","non-repeat","null","56","stimuli/kitchen_5.jpg","","","","",""
"","","","","","image-keyboard-response","70","2.0.0","82251","phkpn02qx0l","gazelle","null","stimuli/coast_56.jpg","null","coast","A","non-repeat","null","57","stimuli/coast_56.jpg","","","","",""
"","","","","","image-keyboard-response","71","2.0.0","83255","phkpn02qx0l","gazelle","null","stimuli/stream_63.jpg","null","stream","B","non-repeat","null","58","stimuli/stream_63.jpg","","","","",""
"","","","","","image-keyboard-response","72","2.0.0","84259","phkpn02qx0l","gazelle","null","stimuli/bar_67.jpg","null","bar","C","non-repeat","null","59","stimuli/bar_67.jpg","","","","",""
"","","","","","image-keyboard-response","73","2.0.0","85263","phkpn02qx0l","gazelle","null","stimuli/playground_61.jpg","null","playground","G","non-repeat","null","60","stimuli/playground_61.jpg","","","","",""
"","","","","","image-keyboard-response","74","2.0.0","86267","phkpn02qx0l","gazelle","null","stimuli/gym_9.jpg","null","gym","H","non-repeat","null","61","stimuli/gym_9.jpg","","","","",""
"","","","","","image-keyboard-response","75","2.0.0","87271","phkpn02qx0l","gazelle","null","stimuli/kitchen_5.jpg","null","kitchen","I","non-repeat","null","62","stimuli/kitchen_5.jpg","","","","",""
"","","","","","image-keyboard-response","76","2.0.0","88275","phkpn02qx0l","gazelle","null","stimuli/bridge_43.jpg","null","bridge","D","non-repeat","null","63","stimuli/bridge_43.jpg","","","","",""
"","","","","","image-keyboard-response","77","2.0.0","89279","phkpn02qx0l","gazelle","null","stimuli/desert_11.jpg","null","desert","E","non-repeat","null","64","stimuli/desert_11.jpg","","","","",""
"","","","","","image-keyboard-response","78","2.0.0","90283","phkpn02qx0l","gazelle","null","stimuli/bathroom_30.jpg","null","bathroom","F","non-repeat","null","65","stimuli/bathroom_30.jpg","","","","",""
"","","","","","image-keyboard-response","79","2.0.0","91287","phkpn02qx0l","gazelle","null","stimuli/street_56.jpg","null","street","J","non-repeat","null","66","stimuli/street_56.jpg","","","","",""
"","","","","","image-keyboard-response","80","2.0.0","92290","phkpn02qx0l","gazelle","null","stimuli/woods_35.jpg","null","woods","K","non-repeat","null","67","stimuli/woods_35.jpg","","","","",""
"","","","","","image-keyboard-response","81","2.0.0","93294","phkpn02qx0l","gazelle","null","stimuli/field_68.jpg","null","field","L","non-repeat","null","68","stimuli/field_68.jpg","","","","",""
"","","","","","image-keyboard-response","82","2.0.0","94298","phkpn02qx0l","gazelle","null","stimuli/bridge_43.jpg","null","bridge","D","non-repeat","null","69","stimuli/bridge_43.jpg","","","","",""
"","","","","","image-keyboard-response","83","2.0.0","95303","phkpn02qx0l","gazelle","null","stimuli/desert_11.jpg","null","desert","E","non-repeat","null","70","stimuli/desert_11.jpg","","","","",""
"","","","","","image-keyboard-response","84","2.0.0","96307","phkpn02qx0l","gazelle","null","stimuli/bathroom_30.jpg","null","bathroom","F","non-repeat","null","71","stimuli/bathroom_30.jpg","","","","",""
"","","","","","image-keyboard-response","85","2.0.0","97311","phkpn02qx0l","gazelle","null","stimuli/street_56.jpg","null","street","J","non-repeat","null","72","stimuli/street_56.jpg","","","","",""
"","","","","","image-keyboard-response","86","2.0.0","98315","phkpn02qx0l","gazelle","null","stimuli/woods_35.jpg","null","woods","K","non-repeat","null","73","stimuli/woods_35.jpg","","","","",""
"","","","","","image-keyboard-response","87","2.0.0","99319","phkpn02qx0l","gazelle","null","stimuli/field_68.jpg","null","field","L","non-repeat","null","74","stimuli/field_68.jpg","","","","",""
"","","","","","image-keyboard-response","88","2.0.0","100322","phkpn02qx0l","gazelle","null","stimuli/bridge_43.jpg","null","bridge","D","non-repeat","null","75","stimuli/bridge_43.jpg","","","","",""
"","","","","","image-keyboard-response","89","2.0.0","101331","phkpn02qx0l","gazelle","null","stimuli/desert_11.jpg","null","desert","E","non-repeat","null","76","stimuli/desert_11.jpg","","","","",""
"","","","","","image-keyboard-response","90","2.0.0","102335","phkpn02qx0l","gazelle","null","stimuli/bathroom_30.jpg","null","bathroom","F","non-repeat","null","77","stimuli/bathroom_30.jpg","","","","",""
"","","","","","image-keyboard-response","91","2.0.0","103340","phkpn02qx0l","gazelle","null","stimuli/coast_56.jpg","null","coast","A","non-repeat","null","78","stimuli/coast_56.jpg","","","","",""
"","","","","","image-keyboard-response","92","2.0.0","104343","phkpn02qx0l","gazelle","null","stimuli/stream_63.jpg","null","stream","B","non-repeat","null","79","stimuli/stream_63.jpg","","","","",""
"","","","","","image-keyboard-response","93","2.0.0","105346","phkpn02qx0l","gazelle","null","stimuli/bar_67.jpg","null","bar","C","non-repeat","null","80","stimuli/bar_67.jpg","","","","",""
"","","","","","image-keyboard-response","94","2.0.0","106350","phkpn02qx0l","gazelle","null","stimuli/bridge_43.jpg","null","bridge","D","non-repeat","null","81","stimuli/bridge_43.jpg","","","","",""
"","","","","","image-keyboard-response","95","2.0.0","107354","phkpn02qx0l","gazelle","543","stimuli/bridge_43.jpg"," ","bridge","D","repeat"," ","81","","","","","",""
"","","","","","image-keyboard-response","96","2.0.0","108358","phkpn02qx0l","gazelle","null","stimuli/desert_11.jpg","null","desert","E","non-repeat","null","82","stimuli/desert_11.jpg","","","","",""
"","","","","","image-keyboard-response","97","2.0.0","109361","phkpn02qx0l","gazelle","null","stimuli/bathroom_30.jpg","null","bathroom","F","non-repeat","null","83","stimuli/bathroom_30.jpg","","","","",""
"","","","","","image-keyboard-response","98","2.0.0","110365","phkpn02qx0l","gazelle","null","stimuli/coast_56.jpg","null","coast","A","non-repeat","null","84","stimuli/coast_56.jpg","","","","",""
"","","","","","image-keyboard-response","99","2.0.0","111368","phkpn02qx0l","gazelle","null","stimuli/stream_63.jpg","null","stream","B","non-repeat","null","85","stimuli/stream_63.jpg","","","","",""
"","","","","","image-keyboard-response","100","2.0.0","112372","phkpn02qx0l","gazelle","null","stimuli/bar_67.jpg","null","bar","C","non-repeat","null","86","stimuli/bar_67.jpg","","","","",""
"","","","","","image-keyboard-response","101","2.0.0","113376","phkpn02qx0l","gazelle","694","stimuli/bar_67.jpg"," ","bar","C","repeat"," ","86","","","","","",""
"","","","","","image-keyboard-response","102","2.0.0","114380","phkpn02qx0l","gazelle","null","stimuli/bridge_43.jpg","null","bridge","D","non-repeat","null","87","stimuli/bridge_43.jpg","","","","",""
"","","","","","image-keyboard-response","103","2.0.0","115384","phkpn02qx0l","gazelle","null","stimuli/desert_11.jpg","null","desert","E","non-repeat","null","88","stimuli/desert_11.jpg","","","","",""
"","","","","","image-keyboard-response","104","2.0.0","116387","phkpn02qx0l","gazelle","null","stimuli/bathroom_30.jpg","null","bathroom","F","non-repeat","null","89","stimuli/bathroom_30.jpg","","","","",""
"","","","","","image-keyboard-response","105","2.0.0","117390","phkpn02qx0l","gazelle","510","stimuli/bathroom_30.jpg"," ","bathroom","F","repeat"," ","89","","","","","",""
"","","","","","image-keyboard-response","106","2.0.0","118393","phkpn02qx0l","gazelle","null","stimuli/playground_61.jpg","null","playground","G","non-repeat","null","90","stimuli/playground_61.jpg","","","","",""
"","","","","","image-keyboard-response","107","2.0.0","119398","phkpn02qx0l","gazelle","null","stimuli/gym_9.jpg","null","gym","H","non-repeat","null","91","stimuli/gym_9.jpg","","","","",""
"","","","","","image-keyboard-response","108","2.0.0","120401","phkpn02qx0l","gazelle","null","stimuli/kitchen_5.jpg","null","kitchen","I","non-repeat","null","92","stimuli/kitchen_5.jpg","","","","",""
"","","","","","image-keyboard-response","109","2.0.0","121405","phkpn02qx0l","gazelle","null","stimuli/coast_56.jpg","null","coast","A","non-repeat","null","93","stimuli/coast_56.jpg","","","","",""
"","","","","","image-keyboard-response","110","2.0.0","122407","phkpn02qx0l","gazelle","null","stimuli/stream_63.jpg","null","stream","B","non-repeat","null","94","stimuli/stream_63.jpg","","","","",""
"","","","","","image-keyboard-response","111","2.0.0","123410","phkpn02qx0l","gazelle","null","stimuli/bar_67.jpg","null","bar","C","non-repeat","null","95","stimuli/bar_67.jpg","","","","",""
"","","","","","image-keyboard-response","112","2.0.0","124414","phkpn02qx0l","gazelle","null","stimuli/bridge_43.jpg","null","bridge","D","non-repeat","null","96","stimuli/bridge_43.jpg","","","","",""
"","","","","","image-keyboard-response","113","2.0.0","125417","phkpn02qx0l","gazelle","null","stimuli/desert_11.jpg","null","desert","E","non-repeat","null","97","stimuli/desert_11.jpg","","","","",""
"","","","","","image-keyboard-response","114","2.0.0","126420","phkpn02qx0l","gazelle","null","stimuli/bathroom_30.jpg","null","bathroom","F","non-repeat","null","98","stimuli/bathroom_30.jpg","","","","",""
"","","","","","image-keyboard-response","115","2.0.0","127424","phkpn02qx0l","gazelle","null","stimuli/coast_56.jpg","null","coast","A","non-repeat","null","99","stimuli/coast_56.jpg","","","","",""
"","","","","","image-keyboard-response","116","2.0.0","128428","phkpn02qx0l","gazelle","null","stimuli/coast_56.jpg","null","coast","A","repeat"," ","99","","","","","",""
"","","","","","image-keyboard-response","117","2.0.0","129431","phkpn02qx0l","gazelle","null","stimuli/stream_63.jpg","null","stream","B","non-repeat","null","100","stimuli/stream_63.jpg","","","","",""
"","","","","","image-keyboard-response","118","2.0.0","130436","phkpn02qx0l","gazelle","null","stimuli/bar_67.jpg","null","bar","C","non-repeat","null","101","stimuli/bar_67.jpg","","","","",""
"","","","","","image-keyboard-response","119","2.0.0","131438","phkpn02qx0l","gazelle","null","stimuli/playground_61.jpg","null","playground","G","non-repeat","null","102","stimuli/playground_61.jpg","","","","",""
"","","","","","image-keyboard-response","120","2.0.0","132442","phkpn02qx0l","gazelle","null","stimuli/gym_9.jpg","null","gym","H","non-repeat","null","103","stimuli/gym_9.jpg","","","","",""
"","","","","","image-keyboard-response","121","2.0.0","133447","phkpn02qx0l","gazelle","null","stimuli/kitchen_5.jpg","null","kitchen","I","non-repeat","null","104","stimuli/kitchen_5.jpg","","","","",""
"","","","","","image-keyboard-response","122","2.0.0","134450","phkpn02qx0l","gazelle","null","stimuli/coast_56.jpg","null","coast","A","non-repeat","null","105","stimuli/coast_56.jpg","","","","",""
"","","","","","image-keyboard-response","123","2.0.0","135453","phkpn02qx0l","gazelle","null","stimuli/stream_63.jpg","null","stream","B","non-repeat","null","106","stimuli/stream_63.jpg","","","","",""
"","","","","","image-keyboard-response","124","2.0.0","136457","phkpn02qx0l","gazelle","null","stimuli/bar_67.jpg","null","bar","C","non-repeat","null","107","stimuli/bar_67.jpg","","","","",""
"","","","","","image-keyboard-response","125","2.0.0","137461","phkpn02qx0l","gazelle","null","stimuli/bridge_43.jpg","null","bridge","D","non-repeat","null","108","stimuli/bridge_43.jpg","","","","",""
"","","","","","image-keyboard-response","126","2.0.0","138465","phkpn02qx0l","gazelle","921","stimuli/bridge_43.jpg"," ","bridge","D","repeat"," ","108","","","","","",""
"","","","","","image-keyboard-response","127","2.0.0","139468","phkpn02qx0l","gazelle","null","stimuli/desert_11.jpg","null","desert","E","non-repeat","null","109","stimuli/desert_11.jpg","","","","",""
"","","","","","image-keyboard-response","128","2.0.0","140471","phkpn02qx0l","gazelle","null","stimuli/bathroom_30.jpg","null","bathroom","F","non-repeat","null","110","stimuli/bathroom_30.jpg","","","","",""
"","","","","","image-keyboard-response","129","2.0.0","141476","phkpn02qx0l","gazelle","473","stimuli/bathroom_30.jpg"," ","bathroom","F","repeat"," ","110","","","","","",""
"","","","","","image-keyboard-response","130","2.0.0","142479","phkpn02qx0l","gazelle","null","stimuli/playground_61.jpg","null","playground","G","non-repeat","null","111","stimuli/playground_61.jpg","","","","",""
"","","","","","image-keyboard-response","131","2.0.0","143483","phkpn02qx0l","gazelle","null","stimuli/gym_9.jpg","null","gym","H","non-repeat","null","112","stimuli/gym_9.jpg","","","","",""
"","","","","","image-keyboard-response","132","2.0.0","144487","phkpn02qx0l","gazelle","null","stimuli/kitchen_5.jpg","null","kitchen","I","non-repeat","null","113","stimuli/kitchen_5.jpg","","","","",""
"","","","","","image-keyboard-response","133","2.0.0","145491","phkpn02qx0l","gazelle","null","stimuli/bridge_43.jpg","null","bridge","D","non-repeat","null","114","stimuli/bridge_43.jpg","","","","",""
"","","","","","image-keyboard-response","134","2.0.0","146495","phkpn02qx0l","gazelle","null","stimuli/desert_11.jpg","null","desert","E","non-repeat","null","115","stimuli/desert_11.jpg","","","","",""
"","","","","","image-keyboard-response","135","2.0.0","147499","phkpn02qx0l","gazelle","null","stimuli/bathroom_30.jpg","null","bathroom","F","non-repeat","null","116","stimuli/bathroom_30.jpg","","","","",""
"","","","","","image-keyboard-response","136","2.0.0","148503","phkpn02qx0l","gazelle","null","stimuli/playground_61.jpg","null","playground","G","non-repeat","null","117","stimuli/playground_61.jpg","","","","",""
"","","","","","image-keyboard-response","137","2.0.0","149506","phkpn02qx0l","gazelle","null","stimuli/gym_9.jpg","null","gym","H","non-repeat","null","118","stimuli/gym_9.jpg","","","","",""
"","","","","","image-keyboard-response","138","2.0.0","150510","phkpn02qx0l","gazelle","null","stimuli/kitchen_5.jpg","null","kitchen","I","non-repeat","null","119","stimuli/kitchen_5.jpg","","","","",""
"","","","","","image-keyboard-response","139","2.0.0","151514","phkpn02qx0l","gazelle","528","stimuli/kitchen_5.jpg"," ","kitchen","I","repeat"," ","119","","","","","",""
"","","","","","image-keyboard-response","140","2.0.0","152516","phkpn02qx0l","gazelle","null","stimuli/coast_56.jpg","null","coast","A","non-repeat","null","120","stimuli/coast_56.jpg","","","","",""
"","","","","","image-keyboard-response","141","2.0.0","153520","phkpn02qx0l","gazelle","null","stimuli/stream_63.jpg","null","stream","B","non-repeat","null","121","stimuli/stream_63.jpg","","","","",""
"","","","","","image-keyboard-response","142","2.0.0","154524","phkpn02qx0l","gazelle","null","stimuli/bar_67.jpg","null","bar","C","non-repeat","null","122","stimuli/bar_67.jpg","","","","",""
"","","","","","image-keyboard-response","143","2.0.0","155528","phkpn02qx0l","gazelle","null","stimuli/bridge_43.jpg","null","bridge","D","non-repeat","null","123","stimuli/bridge_43.jpg","","","","",""
"","","","","","image-keyboard-response","144","2.0.0","156532","phkpn02qx0l","gazelle","null","stimuli/desert_11.jpg","null","desert","E","non-repeat","null","124","stimuli/desert_11.jpg","","","","",""
"","","","","","image-keyboard-response","145","2.0.0","157536","phkpn02qx0l","gazelle","null","stimuli/bathroom_30.jpg","null","bathroom","F","non-repeat","null","125","stimuli/bathroom_30.jpg","","","","",""
"","","","","","image-keyboard-response","146","2.0.0","158540","phkpn02qx0l","gazelle","null","stimuli/playground_61.jpg","null","playground","G","non-repeat","null","126","stimuli/playground_61.jpg","","","","",""
"","","","","","image-keyboard-response","147","2.0.0","159543","phkpn02qx0l","gazelle","null","stimuli/gym_9.jpg","null","gym","H","non-repeat","null","127","stimuli/gym_9.jpg","","","","",""
"","","","","","image-keyboard-response","148","2.0.0","160548","phkpn02qx0l","gazelle","null","stimuli/kitchen_5.jpg","null","kitchen","I","non-repeat","null","128","stimuli/kitchen_5.jpg","","","","",""
"","","","","","image-keyboard-response","149","2.0.0","161551","phkpn02qx0l","gazelle","null","stimuli/bridge_43.jpg","null","bridge","D","non-repeat","null","129","stimuli/bridge_43.jpg","","","","",""
"","","","","","image-keyboard-response","150","2.0.0","162555","phkpn02qx0l","gazelle","null","stimuli/desert_11.jpg","null","desert","E","non-repeat","null","130","stimuli/desert_11.jpg","","","","",""
"","","","","","image-keyboard-response","151","2.0.0","163558","phkpn02qx0l","gazelle","null","stimuli/bathroom_30.jpg","null","bathroom","F","non-repeat","null","131","stimuli/bathroom_30.jpg","","","","",""
"","","","","","image-keyboard-response","152","2.0.0","164562","phkpn02qx0l","gazelle","null","stimuli/bathroom_30.jpg","null","bathroom","F","repeat"," ","131","","","","","",""
"","","","","","image-keyboard-response","153","2.0.0","165565","phkpn02qx0l","gazelle","null","stimuli/street_56.jpg","null","street","J","non-repeat","null","132","stimuli/street_56.jpg","","","","",""
"","","","","","image-keyboard-response","154","2.0.0","166567","phkpn02qx0l","gazelle","null","stimuli/woods_35.jpg","null","woods","K","non-repeat","null","133","stimuli/woods_35.jpg","","","","",""
"","","","","","image-keyboard-response","155","2.0.0","167571","phkpn02qx0l","gazelle","null","stimuli/field_68.jpg","null","field","L","non-repeat","null","134","stimuli/field_68.jpg","","","","",""
"","","","","","image-keyboard-response","156","2.0.0","168574","phkpn02qx0l","gazelle","null","stimuli/playground_61.jpg","null","playground","G","non-repeat","null","135","stimuli/playground_61.jpg","","","","",""
"","","","","","image-keyboard-response","157","2.0.0","169577","phkpn02qx0l","gazelle","null","stimuli/gym_9.jpg","null","gym","H","non-repeat","null","136","stimuli/gym_9.jpg","","","","",""
"","","","","","image-keyboard-response","158","2.0.0","170581","phkpn02qx0l","gazelle","null","stimuli/kitchen_5.jpg","null","kitchen","I","non-repeat","null","137","stimuli/kitchen_5.jpg","","","","",""
"","","","","","image-keyboard-response","159","2.0.0","171584","phkpn02qx0l","gazelle","null","stimuli/coast_56.jpg","null","coast","A","non-repeat","null","138","stimuli/coast_56.jpg","","","","",""
"","","","","","image-keyboard-response","160","2.0.0","172588","phkpn02qx0l","gazelle","570","stimuli/coast_56.jpg"," ","coast","A","repeat"," ","138","","","","","",""
"","","","","","image-keyboard-response","161","2.0.0","173590","phkpn02qx0l","gazelle","null","stimuli/stream_63.jpg","null","stream","B","non-repeat","null","139","stimuli/stream_63.jpg","","","","",""
"","","","","","image-keyboard-response","162","2.0.0","174593","phkpn02qx0l","gazelle","null","stimuli/bar_67.jpg","null","bar","C","non-repeat","null","140","stimuli/bar_67.jpg","","","","",""
"","","","","","image-keyboard-response","163","2.0.0","175597","phkpn02qx0l","gazelle","null","stimuli/street_56.jpg","null","street","J","non-repeat","null","141","stimuli/street_56.jpg","","","","",""
"","","","","","image-keyboard-response","164","2.0.0","176601","phkpn02qx0l","gazelle","null","stimuli/woods_35.jpg","null","woods","K","non-repeat","null","142","stimuli/woods_35.jpg","","","","",""
"","","","","","image-keyboard-response","165","2.0.0","177605","phkpn02qx0l","gazelle","null","stimuli/field_68.jpg","null","field","L","non-repeat","null","143","stimuli/field_68.jpg","","","","",""
"","","","","","image-keyboard-response","166","2.0.0","178609","phkpn02qx0l","gazelle","null","stimuli/field_68.jpg","null","field","L","repeat"," ","143","","","","","",""
"","","","","","image-keyboard-response","167","2.0.0","179612","phkpn02qx0l","gazelle","null","stimuli/playground_61.jpg","null","playground","G","non-repeat","null","144","stimuli/playground_61.jpg","","","","",""
"","","","","","image-keyboard-response","168","2.0.0","180616","phkpn02qx0l","gazelle","null","stimuli/gym_9.jpg","null","gym","H","non-repeat","null","145","stimuli/gym_9.jpg","","","","",""
"","","","","","image-keyboard-response","169","2.0.0","181620","phkpn02qx0l","gazelle","null","stimuli/kitchen_5.jpg","null","kitchen","I","non-repeat","null","146","stimuli/kitchen_5.jpg","","","","",""
"","","","","","image-keyboard-response","170","2.0.0","182624","phkpn02qx0l","gazelle","null","stimuli/bridge_43.jpg","null","bridge","D","non-repeat","null","147","stimuli/bridge_43.jpg","","","","",""
"","","","","","image-keyboard-response","171","2.0.0","183632","phkpn02qx0l","gazelle","null","stimuli/bridge_43.jpg","null","bridge","D","repeat"," ","147","","","","","",""
"","","","","","image-keyboard-response","172","2.0.0","184636","phkpn02qx0l","gazelle","null","stimuli/desert_11.jpg","null","desert","E","non-repeat","null","148","stimuli/desert_11.jpg","","","","",""
"","","","","","image-keyboard-response","173","2.0.0","185639","phkpn02qx0l","gazelle","null","stimuli/bathroom_30.jpg","null","bathroom","F","non-repeat","null","149","stimuli/bathroom_30.jpg","","","","",""
"","","","","","image-keyboard-response","174","2.0.0","186643","phkpn02qx0l","gazelle","null","stimuli/coast_56.jpg","null","coast","A","non-repeat","null","150","stimuli/coast_56.jpg","","","","",""
"","","","","","image-keyboard-response","175","2.0.0","187647","phkpn02qx0l","gazelle","null","stimuli/stream_63.jpg","null","stream","B","non-repeat","null","151","stimuli/stream_63.jpg","","","","",""
"","","","","","image-keyboard-response","176","2.0.0","188650","phkpn02qx0l","gazelle","null","stimuli/bar_67.jpg","null","bar","C","non-repeat","null","152","stimuli/bar_67.jpg","","","","",""
"","","","","","image-keyboard-response","177","2.0.0","189653","phkpn02qx0l","gazelle","null","stimuli/street_56.jpg","null","street","J","non-repeat","null","153","stimuli/street_56.jpg","","","","",""
"","","","","","image-keyboard-response","178","2.0.0","190657","phkpn02qx0l","gazelle","711","stimuli/street_56.jpg"," ","street","J","repeat"," ","153","","","","","",""
"","","","","","image-keyboard-response","179","2.0.0","191660","phkpn02qx0l","gazelle","null","stimuli/woods_35.jpg","null","woods","K","non-repeat","null","154","stimuli/woods_35.jpg","","","","",""
"","","","","","image-keyboard-response","180","2.0.0","192664","phkpn02qx0l","gazelle","null","stimuli/field_68.jpg","null","field","L","non-repeat","null","155","stimuli/field_68.jpg","","","","",""
"","","","","","image-keyboard-response","181","2.0.0","193667","phkpn02qx0l","gazelle","null","stimuli/coast_56.jpg","null","coast","A","non-repeat","null","156","stimuli/coast_56.jpg","","","","",""
"","","","","","image-keyboard-response","182","2.0.0","194671","phkpn02qx0l","gazelle","null","stimuli/coast_56.jpg","null","coast","A","repeat"," ","156","","","","","",""
"","","","","","image-keyboard-response","183","2.0.0","195675","phkpn02qx0l","gazelle","null","stimuli/stream_63.jpg","null","stream","B","non-repeat","null","157","stimuli/stream_63.jpg","","","","",""
"","","","","","image-keyboard-response","184","2.0.0","196678","phkpn02qx0l","gazelle","null","stimuli/bar_67.jpg","null","bar","C","non-repeat","null","158","stimuli/bar_67.jpg","","","","",""
"","","","","","image-keyboard-response","185","2.0.0","197682","phkpn02qx0l","gazelle","null","stimuli/playground_61.jpg","null","playground","G","non-repeat","null","159","stimuli/playground_61.jpg","","","","",""
"","","","","","image-keyboard-response","186","2.0.0","198687","phkpn02qx0l","gazelle","null","stimuli/gym_9.jpg","null","gym","H","non-repeat","null","160","stimuli/gym_9.jpg","","","","",""
"","","","","","image-keyboard-response","187","2.0.0","199690","phkpn02qx0l","gazelle","null","stimuli/kitchen_5.jpg","null","kitchen","I","non-repeat","null","161","stimuli/kitchen_5.jpg","","","","",""
"","","","","","image-keyboard-response","188","2.0.0","200694","phkpn02qx0l","gazelle","null","stimuli/street_56.jpg","null","street","J","non-repeat","null","162","stimuli/street_56.jpg","","","","",""
"","","","","","image-keyboard-response","189","2.0.0","201697","phkpn02qx0l","gazelle","null","stimuli/woods_35.jpg","null","woods","K","non-repeat","null","163","stimuli/woods_35.jpg","","","","",""
"","","","","","image-keyboard-response","190","2.0.0","202702","phkpn02qx0l","gazelle","null","stimuli/field_68.jpg","null","field","L","non-repeat","null","164","stimuli/field_68.jpg","","","","",""
"","","","","","image-keyboard-response","191","2.0.0","203705","phkpn02qx0l","gazelle","null","stimuli/bridge_43.jpg","null","bridge","D","non-repeat","null","165","stimuli/bridge_43.jpg","","","","",""
"","","","","","image-keyboard-response","192","2.0.0","204709","phkpn02qx0l","gazelle","null","stimuli/desert_11.jpg","null","desert","E","non-repeat","null","166","stimuli/desert_11.jpg","","","","",""
"","","","","","image-keyboard-response","193","2.0.0","205713","phkpn02qx0l","gazelle","null","stimuli/bathroom_30.jpg","null","bathroom","F","non-repeat","null","167","stimuli/bathroom_30.jpg","","","","",""
"","","","","","image-keyboard-response","194","2.0.0","206716","phkpn02qx0l","gazelle","null","stimuli/coast_56.jpg","null","coast","A","non-repeat","null","168","stimuli/coast_56.jpg","","","","",""
"","","","","","image-keyboard-response","195","2.0.0","207720","phkpn02qx0l","gazelle","null","stimuli/stream_63.jpg","null","stream","B","non-repeat","null","169","stimuli/stream_63.jpg","","","","",""
"","","","","","image-keyboard-response","196","2.0.0","208723","phkpn02qx0l","gazelle","null","stimuli/bar_67.jpg","null","bar","C","non-repeat","null","170","stimuli/bar_67.jpg","","","","",""
"","","","","","image-keyboard-response","197","2.0.0","209727","phkpn02qx0l","gazelle","null","stimuli/playground_61.jpg","null","playground","G","non-repeat","null","171","stimuli/playground_61.jpg","","","","",""
"","","","","","image-keyboard-response","198","2.0.0","210730","phkpn02qx0l","gazelle","null","stimuli/gym_9.jpg","null","gym","H","non-repeat","null","172","stimuli/gym_9.jpg","","","","",""
"","","","","","image-keyboard-response","199","2.0.0","211734","phkpn02qx0l","gazelle","null","stimuli/kitchen_5.jpg","null","kitchen","I","non-repeat","null","173","stimuli/kitchen_5.jpg","","","","",""
"","","","","","image-keyboard-response","200","2.0.0","212738","phkpn02qx0l","gazelle","null","stimuli/bridge_43.jpg","null","bridge","D","non-repeat","null","174","stimuli/bridge_43.jpg","","","","",""
"","","","","","image-keyboard-response","201","2.0.0","213741","phkpn02qx0l","gazelle","null","stimuli/desert_11.jpg","null","desert","E","non-repeat","null","175","stimuli/desert_11.jpg","","","","",""
"","","","","","image-keyboard-response","202","2.0.0","214745","phkpn02qx0l","gazelle","null","stimuli/bathroom_30.jpg","null","bathroom","F","non-repeat","null","176","stimuli/bathroom_30.jpg","","","","",""
"","","","","","image-keyboard-response","203","2.0.0","215749","phkpn02qx0l","gazelle","null","stimuli/street_56.jpg","null","street","J","non-repeat","null","177","stimuli/street_56.jpg","","","","",""
"","","","","","image-keyboard-response","204","2.0.0","216753","phkpn02qx0l","gazelle","null","stimuli/woods_35.jpg","null","woods","K","non-repeat","null","178","stimuli/woods_35.jpg","","","","",""
"","","","","","image-keyboard-response","205","2.0.0","217756","phkpn02qx0l","gazelle","null","stimuli/field_68.jpg","null","field","L","non-repeat","null","179","stimuli/field_68.jpg","","","","",""
"","","","","","image-keyboard-response","206","2.0.0","218760","phkpn02qx0l","gazelle","606","stimuli/field_68.jpg"," ","field","L","repeat"," ","179","","","","","",""
"","","","","","image-keyboard-response","207","2.0.0","219763","phkpn02qx0l","gazelle","null","stimuli/playground_61.jpg","null","playground","G","non-repeat","null","180","stimuli/playground_61.jpg","","","","",""
"","","","","","image-keyboard-response","208","2.0.0","220767","phkpn02qx0l","gazelle","null","stimuli/gym_9.jpg","null","gym","H","non-repeat","null","181","stimuli/gym_9.jpg","","","","",""
"","","","","","image-keyboard-response","209","2.0.0","221771","phkpn02qx0l","gazelle","null","stimuli/kitchen_5.jpg","null","kitchen","I","non-repeat","null","182","stimuli/kitchen_5.jpg","","","","",""
"","","","","","image-keyboard-response","210","2.0.0","222775","phkpn02qx0l","gazelle","null","stimuli/bridge_43.jpg","null","bridge","D","non-repeat","null","183","stimuli/bridge_43.jpg","","","","",""
"","","","","","image-keyboard-response","211","2.0.0","223778","phkpn02qx0l","gazelle","null","stimuli/desert_11.jpg","null","desert","E","non-repeat","null","184","stimuli/desert_11.jpg","","","","",""
"","","","","","image-keyboard-response","212","2.0.0","224782","phkpn02qx0l","gazelle","null","stimuli/bathroom_30.jpg","null","bathroom","F","non-repeat","null","185","stimuli/bathroom_30.jpg","","","","",""
"","","","","","image-keyboard-response","213","2.0.0","225784","phkpn02qx0l","gazelle","717","stimuli/bathroom_30.jpg"," ","bathroom","F","repeat"," ","185","","","","","",""
"","","","","","image-keyboard-response","214","2.0.0","226788","phkpn02qx0l","gazelle","null","stimuli/playground_61.jpg","null","playground","G","non-repeat","null","186","stimuli/playground_61.jpg","","","","",""
"","","","","","image-keyboard-response","215","2.0.0","227792","phkpn02qx0l","gazelle","null","stimuli/gym_9.jpg","null","gym","H","non-repeat","null","187","stimuli/gym_9.jpg","","","","",""
"","","","","","image-keyboard-response","216","2.0.0","228795","phkpn02qx0l","gazelle","null","stimuli/kitchen_5.jpg","null","kitchen","I","non-repeat","null","188","stimuli/kitchen_5.jpg","","","","",""
"","","","","","image-keyboard-response","217","2.0.0","229799","phkpn02qx0l","gazelle","null","stimuli/street_56.jpg","null","street","J","non-repeat","null","189","stimuli/street_56.jpg","","","","",""
"","","","","","image-keyboard-response","218","2.0.0","230803","phkpn02qx0l","gazelle","null","stimuli/woods_35.jpg","null","woods","K","non-repeat","null","190","stimuli/woods_35.jpg","","","","",""
"","","","","","image-keyboard-response","219","2.0.0","231807","phkpn02qx0l","gazelle","null","stimuli/field_68.jpg","null","field","L","non-repeat","null","191","stimuli/field_68.jpg","","","","",""
"","","","","","image-keyboard-response","220","2.0.0","232811","phkpn02qx0l","gazelle","null","stimuli/field_68.jpg","null","field","L","repeat"," ","191","","","","","",""
"","","","","","image-keyboard-response","221","2.0.0","233815","phkpn02qx0l","gazelle","null","stimuli/coast_56.jpg","null","coast","A","non-repeat","null","192","stimuli/coast_56.jpg","","","","",""
"","","","","","image-keyboard-response","222","2.0.0","234819","phkpn02qx0l","gazelle","null","stimuli/stream_63.jpg","null","stream","B","non-repeat","null","193","stimuli/stream_63.jpg","","","","",""
"","","","","","image-keyboard-response","223","2.0.0","235824","phkpn02qx0l","gazelle","null","stimuli/bar_67.jpg","null","bar","C","non-repeat","null","194","stimuli/bar_67.jpg","","","","",""
"","","","","","image-keyboard-response","224","2.0.0","236828","phkpn02qx0l","gazelle","null","stimuli/bridge_43.jpg","null","bridge","D","non-repeat","null","195","stimuli/bridge_43.jpg","","","","",""
"","","","","","image-keyboard-response","225","2.0.0","237832","phkpn02qx0l","gazelle","null","stimuli/bridge_43.jpg","null","bridge","D","repeat"," ","195","","","","","",""
"","","","","","image-keyboard-response","226","2.0.0","238836","phkpn02qx0l","gazelle","6","stimuli/desert_11.jpg"," ","desert","E","non-repeat","null","196","stimuli/desert_11.jpg","","","","",""
"","","","","","image-keyboard-response","227","2.0.0","239841","phkpn02qx0l","gazelle","null","stimuli/bathroom_30.jpg","null","bathroom","F","non-repeat","null","197","stimuli/bathroom_30.jpg","","","","",""
"","","","","","image-keyboard-response","228","2.0.0","240845","phkpn02qx0l","gazelle","null","stimuli/street_56.jpg","null","street","J","non-repeat","null","198","stimuli/street_56.jpg","","","","",""
"","","","","","image-keyboard-response","229","2.0.0","241849","phkpn02qx0l","gazelle","807","stimuli/street_56.jpg"," ","street","J","repeat"," ","198","","","","","",""
"","","","","","image-keyboard-response","230","2.0.0","242853","phkpn02qx0l","gazelle","null","stimuli/woods_35.jpg","null","woods","K","non-repeat","null","199","stimuli/woods_35.jpg","","","","",""
"","","","","","image-keyboard-response","231","2.0.0","243857","phkpn02qx0l","gazelle","null","stimuli/field_68.jpg","null","field","L","non-repeat","null","200","stimuli/field_68.jpg","","","","",""
"","","","","","image-keyboard-response","232","2.0.0","244861","phkpn02qx0l","gazelle","null","stimuli/playground_61.jpg","null","playground","G","non-repeat","null","201","stimuli/playground_61.jpg","","","","",""
"","","","","","image-keyboard-response","233","2.0.0","245865","phkpn02qx0l","gazelle","null","stimuli/gym_9.jpg","null","gym","H","non-repeat","null","202","stimuli/gym_9.jpg","","","","",""
"","","","","","image-keyboard-response","234","2.0.0","246869","phkpn02qx0l","gazelle","null","stimuli/kitchen_5.jpg","null","kitchen","I","non-repeat","null","203","stimuli/kitchen_5.jpg","","","","",""
"","","","","","image-keyboard-response","235","2.0.0","247873","phkpn02qx0l","gazelle","599","stimuli/kitchen_5.jpg"," ","kitchen","I","repeat"," ","203","","","","","",""
"","","","","","image-keyboard-response","236","2.0.0","248877","phkpn02qx0l","gazelle","null","stimuli/coast_56.jpg","null","coast","A","non-repeat","null","204","stimuli/coast_56.jpg","","","","",""
"","","","","","image-keyboard-response","237","2.0.0","249882","phkpn02qx0l","gazelle","null","stimuli/stream_63.jpg","null","stream","B","non-repeat","null","205","stimuli/stream_63.jpg","","","","",""
"","","","","","image-keyboard-response","238","2.0.0","250886","phkpn02qx0l","gazelle","null","stimuli/bar_67.jpg","null","bar","C","non-repeat","null","206","stimuli/bar_67.jpg","","","","",""
"","","","","","image-keyboard-response","239","2.0.0","251890","phkpn02qx0l","gazelle","null","stimuli/playground_61.jpg","null","playground","G","non-repeat","null","207","stimuli/playground_61.jpg","","","","",""
"","","","","","image-keyboard-response","240","2.0.0","252894","phkpn02qx0l","gazelle","517","stimuli/playground_61.jpg"," ","playground","G","repeat"," ","207","","","","","",""
"","","","","","image-keyboard-response","241","2.0.0","253898","phkpn02qx0l","gazelle","null","stimuli/gym_9.jpg","null","gym","H","non-repeat","null","208","stimuli/gym_9.jpg","","","","",""
"","","","","","image-keyboard-response","242","2.0.0","254902","phkpn02qx0l","gazelle","null","stimuli/kitchen_5.jpg","null","kitchen","I","non-repeat","null","209","stimuli/kitchen_5.jpg","","","","",""
"","","","","","image-keyboard-response","243","2.0.0","255906","phkpn02qx0l","gazelle","null","stimuli/bridge_43.jpg","null","bridge","D","non-repeat","null","210","stimuli/bridge_43.jpg","","","","",""
"","","","","","image-keyboard-response","244","2.0.0","256909","phkpn02qx0l","gazelle","null","stimuli/desert_11.jpg","null","desert","E","non-repeat","null","211","stimuli/desert_11.jpg","","","","",""
"","","","","","image-keyboard-response","245","2.0.0","257913","phkpn02qx0l","gazelle","null","stimuli/bathroom_30.jpg","null","bathroom","F","non-repeat","null","212","stimuli/bathroom_30.jpg","","","","",""
"","","","","","image-keyboard-response","246","2.0.0","258916","phkpn02qx0l","gazelle","799","stimuli/bathroom_30.jpg"," ","bathroom","F","repeat"," ","212","","","","","",""
"","","","","","image-keyboard-response","247","2.0.0","259919","phkpn02qx0l","gazelle","null","stimuli/playground_61.jpg","null","playground","G","non-repeat","null","213","stimuli/playground_61.jpg","","","","",""
"","","","","","image-keyboard-response","248","2.0.0","260924","phkpn02qx0l","gazelle","null","stimuli/playground_61.jpg","null","playground","G","repeat"," ","213","","","","","",""
"","","","","","image-keyboard-response","249","2.0.0","261928","phkpn02qx0l","gazelle","null","stimuli/gym_9.jpg","null","gym","H","non-repeat","null","214","stimuli/gym_9.jpg","","","","",""
"","","","","","image-keyboard-response","250","2.0.0","262931","phkpn02qx0l","gazelle","null","stimuli/kitchen_5.jpg","null","kitchen","I","non-repeat","null","215","stimuli/kitchen_5.jpg","","","","",""
"","","","","","image-keyboard-response","251","2.0.0","263935","phkpn02qx0l","gazelle","null","stimuli/street_56.jpg","null","street","J","non-repeat","null","216","stimuli/street_56.jpg","","","","",""
"","","","","","image-keyboard-response","252","2.0.0","264938","phkpn02qx0l","gazelle","null","stimuli/woods_35.jpg","null","woods","K","non-repeat","null","217","stimuli/woods_35.jpg","","","","",""
"","","","","","image-keyboard-response","253","2.0.0","265942","phkpn02qx0l","gazelle","null","stimuli/field_68.jpg","null","field","L","non-repeat","null","218","stimuli/field_68.jpg","","","","",""
"","","","","","image-keyboard-response","254","2.0.0","266946","phkpn02qx0l","gazelle","null","stimuli/bridge_43.jpg","null","bridge","D","non-repeat","null","219","stimuli/bridge_43.jpg","","","","",""
"","","","","","image-keyboard-response","255","2.0.0","267950","phkpn02qx0l","gazelle","null","stimuli/desert_11.jpg","null","desert","E","non-repeat","null","220","stimuli/desert_11.jpg","","","","",""
"","","","","","image-keyboard-response","256","2.0.0","268958","phkpn02qx0l","gazelle","null","stimuli/bathroom_30.jpg","null","bathroom","F","non-repeat","null","221","stimuli/bathroom_30.jpg","","","","",""
"","","","","","image-keyboard-response","257","2.0.0","269963","phkpn02qx0l","gazelle","null","stimuli/coast_56.jpg","null","coast","A","non-repeat","null","222","stimuli/coast_56.jpg","","","","",""
"","","","","","image-keyboard-response","258","2.0.0","270967","phkpn02qx0l","gazelle","null","stimuli/stream_63.jpg","null","stream","B","non-repeat","null","223","stimuli/stream_63.jpg","","","","",""
"","","","","","image-keyboard-response","259","2.0.0","271971","phkpn02qx0l","gazelle","null","stimuli/bar_67.jpg","null","bar","C","non-repeat","null","224","stimuli/bar_67.jpg","","","","",""
"","","","","","image-keyboard-response","260","2.0.0","272974","phkpn02qx0l","gazelle","null","stimuli/street_56.jpg","null","street","J","non-repeat","null","225","stimuli/street_56.jpg","","","","",""
"","","","","","image-keyboard-response","261","2.0.0","273977","phkpn02qx0l","gazelle","null","stimuli/woods_35.jpg","null","woods","K","non-repeat","null","226","stimuli/woods_35.jpg","","","","",""
"","","","","","image-keyboard-response","262","2.0.0","274981","phkpn02qx0l","gazelle","null","stimuli/field_68.jpg","null","field","L","non-repeat","null","227","stimuli/field_68.jpg","","","","",""
"","","","","","image-keyboard-response","263","2.0.0","275985","phkpn02qx0l","gazelle","null","stimuli/playground_61.jpg","null","playground","G","non-repeat","null","228","stimuli/playground_61.jpg","","","","",""
"","","","","","image-keyboard-response","264","2.0.0","276989","phkpn02qx0l","gazelle","null","stimuli/gym_9.jpg","null","gym","H","non-repeat","null","229","stimuli/gym_9.jpg","","","","",""
"","","","","","image-keyboard-response","265","2.0.0","277992","phkpn02qx0l","gazelle","null","stimuli/kitchen_5.jpg","null","kitchen","I","non-repeat","null","230","stimuli/kitchen_5.jpg","","","","",""
"","","","","","image-keyboard-response","266","2.0.0","278996","phkpn02qx0l","gazelle","null","stimuli/coast_56.jpg","null","coast","A","non-repeat","null","231","stimuli/coast_56.jpg","","","","",""
"","","","","","image-keyboard-response","267","2.0.0","280000","phkpn02qx0l","gazelle","null","stimuli/stream_63.jpg","null","stream","B","non-repeat","null","232","stimuli/stream_63.jpg","","","","",""
"","","","","","image-keyboard-response","268","2.0.0","281004","phkpn02qx0l","gazelle","null","stimuli/bar_67.jpg","null","bar","C","non-repeat","null","233","stimuli/bar_67.jpg","","","","",""
"","","","","","image-keyboard-response","269","2.0.0","282008","phkpn02qx0l","gazelle","null","stimuli/street_56.jpg","null","street","J","non-repeat","null","234","stimuli/street_56.jpg","","","","",""
"","","","","","image-keyboard-response","270","2.0.0","283012","phkpn02qx0l","gazelle","null","stimuli/woods_35.jpg","null","woods","K","non-repeat","null","235","stimuli/woods_35.jpg","","","","",""
"","","","","","image-keyboard-response","271","2.0.0","284015","phkpn02qx0l","gazelle","null","stimuli/field_68.jpg","null","field","L","non-repeat","null","236","stimuli/field_68.jpg","","","","",""
"","","","","","image-keyboard-response","272","2.0.0","285019","phkpn02qx0l","gazelle","null","stimuli/bridge_43.jpg","null","bridge","D","non-repeat","null","237","stimuli/bridge_43.jpg","","","","",""
"","","","","","image-keyboard-response","273","2.0.0","286023","phkpn02qx0l","gazelle","null","stimuli/desert_11.jpg","null","desert","E","non-repeat","null","238","stimuli/desert_11.jpg","","","","",""
"","","","","","image-keyboard-response","274","2.0.0","287027","phkpn02qx0l","gazelle","null","stimuli/bathroom_30.jpg","null","bathroom","F","non-repeat","null","239","stimuli/bathroom_30.jpg","","","","",""
"","","","","","image-keyboard-response","275","2.0.0","288031","phkpn02qx0l","gazelle","null","stimuli/coast_56.jpg","null","coast","A","non-repeat","null","240","stimuli/coast_56.jpg","","","","",""
"","","","","","image-keyboard-response","276","2.0.0","289035","phkpn02qx0l","gazelle","null","stimuli/stream_63.jpg","null","stream","B","non-repeat","null","241","stimuli/stream_63.jpg","","","","",""
"","","","","","image-keyboard-response","277","2.0.0","290039","phkpn02qx0l","gazelle","null","stimuli/bar_67.jpg","null","bar","C","non-repeat","null","242","stimuli/bar_67.jpg","","","","",""
"","","","","","image-keyboard-response","278","2.0.0","291042","phkpn02qx0l","gazelle","null","stimuli/playground_61.jpg","null","playground","G","non-repeat","null","243","stimuli/playground_61.jpg","","","","",""
"","","","","","image-keyboard-response","279","2.0.0","292046","phkpn02qx0l","gazelle","564","stimuli/playground_61.jpg"," ","playground","G","repeat"," ","243","","","","","",""
"","","","","","image-keyboard-response","280","2.0.0","293050","phkpn02qx0l","gazelle","null","stimuli/gym_9.jpg","null","gym","H","non-repeat","null","244","stimuli/gym_9.jpg","","","","",""
"","","","","","image-keyboard-response","281","2.0.0","294054","phkpn02qx0l","gazelle","null","stimuli/kitchen_5.jpg","null","kitchen","I","non-repeat","null","245","stimuli/kitchen_5.jpg","","","","",""
"","","","","","image-keyboard-response","282","2.0.0","295058","phkpn02qx0l","gazelle","713","stimuli/kitchen_5.jpg"," ","kitchen","I","repeat"," ","245","","","","","",""
"","","","","","image-keyboard-response","283","2.0.0","296061","phkpn02qx0l","gazelle","null","stimuli/bridge_43.jpg","null","bridge","D","non-repeat","null","246","stimuli/bridge_43.jpg","","","","",""
"","","","","","image-keyboard-response","284","2.0.0","297065","phkpn02qx0l","gazelle","null","stimuli/desert_11.jpg","null","desert","E","non-repeat","null","247","stimuli/desert_11.jpg","","","","",""
"","","","","","image-keyboard-response","285","2.0.0","298068","phkpn02qx0l","gazelle","null","stimuli/bathroom_30.jpg","null","bathroom","F","non-repeat","null","248","stimuli/bathroom_30.jpg","","","","",""
"","","","","","image-keyboard-response","286","2.0.0","299072","phkpn02qx0l","gazelle","null","stimuli/street_56.jpg","null","street","J","non-repeat","null","249","stimuli/street_56.jpg","","","","",""
"","","","","","image-keyboard-response","287","2.0.0","300075","phkpn02qx0l","gazelle","null","stimuli/woods_35.jpg","null","woods","K","non-repeat","null","250","stimuli/woods_35.jpg","","","","",""
"","","","","","image-keyboard-response","288","2.0.0","301079","phkpn02qx0l","gazelle","null","stimuli/field_68.jpg","null","field","L","non-repeat","null","251","stimuli/field_68.jpg","","","","",""
"","","","","","image-keyboard-response","289","2.0.0","302083","phkpn02qx0l","gazelle","null","stimuli/coast_56.jpg","null","coast","A","non-repeat","null","252","stimuli/coast_56.jpg","","","","",""
"","","","","","image-keyboard-response","290","2.0.0","303087","phkpn02qx0l","gazelle","null","stimuli/stream_63.jpg","null","stream","B","non-repeat","null","253","stimuli/stream_63.jpg","","","","",""
"","","","","","image-keyboard-response","291","2.0.0","304091","phkpn02qx0l","gazelle","null","stimuli/bar_67.jpg","null","bar","C","non-repeat","null","254","stimuli/bar_67.jpg","","","","",""
"","","","","","image-keyboard-response","292","2.0.0","305094","phkpn02qx0l","gazelle","null","stimuli/street_56.jpg","null","street","J","non-repeat","null","255","stimuli/street_56.jpg","","","","",""
"","","","","","image-keyboard-response","293","2.0.0","306098","phkpn02qx0l","gazelle","604","stimuli/street_56.jpg"," ","street","J","repeat"," ","255","","","","","",""
"","","","","","image-keyboard-response","294","2.0.0","307102","phkpn02qx0l","gazelle","null","stimuli/woods_35.jpg","null","woods","K","non-repeat","null","256","stimuli/woods_35.jpg","","","","",""
"","","","","","image-keyboard-response","295","2.0.0","308105","phkpn02qx0l","gazelle","null","stimuli/field_68.jpg","null","field","L","non-repeat","null","257","stimuli/field_68.jpg","","","","",""
"","","","","","image-keyboard-response","296","2.0.0","309109","phkpn02qx0l","gazelle","null","stimuli/playground_61.jpg","null","playground","G","non-repeat","null","258","stimuli/playground_61.jpg","","","","",""
"","","","","","image-keyboard-response","297","2.0.0","310113","phkpn02qx0l","gazelle","null","stimuli/gym_9.jpg","null","gym","H","non-repeat","null","259","stimuli/gym_9.jpg","","","","",""
"","","","","","image-keyboard-response","298","2.0.0","311117","phkpn02qx0l","gazelle","null","stimuli/kitchen_5.jpg","null","kitchen","I","non-repeat","null","260","stimuli/kitchen_5.jpg","","","","",""
"","","","","","image-keyboard-response","299","2.0.0","312120","phkpn02qx0l","gazelle","null","stimuli/kitchen_5.jpg","null","kitchen","I","repeat"," ","260","","","","","",""
"","","","","","image-keyboard-response","300","2.0.0","313124","phkpn02qx0l","gazelle","null","stimuli/street_56.jpg","null","street","J","non-repeat","null","261","stimuli/street_56.jpg","","","","",""
"","","","","","image-keyboard-response","301","2.0.0","314128","phkpn02qx0l","gazelle","null","stimuli/woods_35.jpg","null","woods","K","non-repeat","null","262","stimuli/woods_35.jpg","","","","",""
"","","","","","image-keyboard-response","302","2.0.0","315132","phkpn02qx0l","gazelle","null","stimuli/field_68.jpg","null","field","L","non-repeat","null","263","stimuli/field_68.jpg","","","","",""
"","","","","","image-keyboard-response","303","2.0.0","316136","phkpn02qx0l","gazelle","null","stimuli/coast_56.jpg","null","coast","A","non-repeat","null","264","stimuli/coast_56.jpg","","","","",""
"","","","","","image-keyboard-response","304","2.0.0","317140","phkpn02qx0l","gazelle","null","stimuli/stream_63.jpg","null","stream","B","non-repeat","null","265","stimuli/stream_63.jpg","","","","",""
"","","","","","image-keyboard-response","305","2.0.0","318144","phkpn02qx0l","gazelle","null","stimuli/bar_67.jpg","null","bar","C","non-repeat","null","266","stimuli/bar_67.jpg","","","","",""
"","","","","","image-keyboard-response","306","2.0.0","319147","phkpn02qx0l","gazelle","null","stimuli/playground_61.jpg","null","playground","G","non-repeat","null","267","stimuli/playground_61.jpg","","","","",""
"","","","","","image-keyboard-response","307","2.0.0","320151","phkpn02qx0l","gazelle","null","stimuli/gym_9.jpg","null","gym","H","non-repeat","null","268","stimuli/gym_9.jpg","","","","",""
"","","","","","image-keyboard-response","308","2.0.0","321155","phkpn02qx0l","gazelle","null","stimuli/kitchen_5.jpg","null","kitchen","I","non-repeat","null","269","stimuli/kitchen_5.jpg","","","","",""
"","","","","","image-keyboard-response","309","2.0.0","322158","phkpn02qx0l","gazelle","632","stimuli/kitchen_5.jpg"," ","kitchen","I","repeat"," ","269","","","","","",""
"","","","","","image-keyboard-response","310","2.0.0","323161","phkpn02qx0l","gazelle","null","stimuli/coast_56.jpg","null","coast","A","non-repeat","null","270","stimuli/coast_56.jpg","","","","",""
"","","","","","image-keyboard-response","311","2.0.0","324165","phkpn02qx0l","gazelle","null","stimuli/stream_63.jpg","null","stream","B","non-repeat","null","271","stimuli/stream_63.jpg","","","","",""
"","","","","","image-keyboard-response","312","2.0.0","325169","phkpn02qx0l","gazelle","null","stimuli/bar_67.jpg","null","bar","C","non-repeat","null","272","stimuli/bar_67.jpg","","","","",""
"","","","","","image-keyboard-response","313","2.0.0","326172","phkpn02qx0l","gazelle","null","stimuli/street_56.jpg","null","street","J","non-repeat","null","273","stimuli/street_56.jpg","","","","",""
"","","","","","image-keyboard-response","314","2.0.0","327175","phkpn02qx0l","gazelle","551","stimuli/street_56.jpg"," ","street","J","repeat"," ","273","","","","","",""
"","","","","","image-keyboard-response","315","2.0.0","328179","phkpn02qx0l","gazelle","null","stimuli/woods_35.jpg","null","woods","K","non-repeat","null","274","stimuli/woods_35.jpg","","","","",""
"","","","","","image-keyboard-response","316","2.0.0","329183","phkpn02qx0l","gazelle","null","stimuli/field_68.jpg","null","field","L","non-repeat","null","275","stimuli/field_68.jpg","","","","",""
"","","","","","image-keyboard-response","317","2.0.0","330187","phkpn02qx0l","gazelle","null","stimuli/bridge_43.jpg","null","bridge","D","non-repeat","null","276","stimuli/bridge_43.jpg","","","","",""
"","","","","","image-keyboard-response","318","2.0.0","331190","phkpn02qx0l","gazelle","622","stimuli/bridge_43.jpg"," ","bridge","D","repeat"," ","276","","","","","",""
"","","","","","image-keyboard-response","319","2.0.0","332194","phkpn02qx0l","gazelle","null","stimuli/desert_11.jpg","null","desert","E","non-repeat","null","277","stimuli/desert_11.jpg","","","","",""
"","","","","","image-keyboard-response","320","2.0.0","333197","phkpn02qx0l","gazelle","null","stimuli/bathroom_30.jpg","null","bathroom","F","non-repeat","null","278","stimuli/bathroom_30.jpg","","","","",""
"","","","","","image-keyboard-response","321","2.0.0","334201","phkpn02qx0l","gazelle","null","stimuli/street_56.jpg","null","street","J","non-repeat","null","279","stimuli/street_56.jpg","","","","",""
"","","","","","image-keyboard-response","322","2.0.0","335205","phkpn02qx0l","gazelle","null","stimuli/street_56.jpg","null","street","J","repeat"," ","279","","","","","",""
"","","","","","image-keyboard-response","323","2.0.0","336209","phkpn02qx0l","gazelle","null","stimuli/woods_35.jpg","null","woods","K","non-repeat","null","280","stimuli/woods_35.jpg","","","","",""
"","","","","","image-keyboard-response","324","2.0.0","337213","phkpn02qx0l","gazelle","null","stimuli/field_68.jpg","null","field","L","non-repeat","null","281","stimuli/field_68.jpg","","","","",""
"","","","","","image-keyboard-response","325","2.0.0","338217","phkpn02qx0l","gazelle","null","stimuli/coast_56.jpg","null","coast","A","non-repeat","null","282","stimuli/coast_56.jpg","","","","",""
"","","","","","image-keyboard-response","326","2.0.0","339221","phkpn02qx0l","gazelle","null","stimuli/stream_63.jpg","null","stream","B","non-repeat","null","283","stimuli/stream_63.jpg","","","","",""
"","","","","","image-keyboard-response","327","2.0.0","340224","phkpn02qx0l","gazelle","null","stimuli/bar_67.jpg","null","bar","C","non-repeat","null","284","stimuli/bar_67.jpg","","","","",""
"","","","","","image-keyboard-response","328","2.0.0","341228","phkpn02qx0l","gazelle","null","stimuli/bridge_43.jpg","null","bridge","D","non-repeat","null","285","stimuli/bridge_43.jpg","","","","",""
"","","","","","image-keyboard-response","329","2.0.0","342231","phkpn02qx0l","gazelle","null","stimuli/desert_11.jpg","null","desert","E","non-repeat","null","286","stimuli/desert_11.jpg","","","","",""
"","","","","","image-keyboard-response","330","2.0.0","343235","phkpn02qx0l","gazelle","null","stimuli/bathroom_30.jpg","null","bathroom","F","non-repeat","null","287","stimuli/bathroom_30.jpg","","","","",""
"","","","","","image-keyboard-response","331","2.0.0","344239","phkpn02qx0l","gazelle","797","stimuli/bathroom_30.jpg"," ","bathroom","F","repeat"," ","287","","","","","",""
"","","","","","image-keyboard-response","332","2.0.0","345242","phkpn02qx0l","gazelle","null","stimuli/playground_61.jpg","null","playground","G","non-repeat","null","288","stimuli/playground_61.jpg","","","","",""
"","","","","","image-keyboard-response","333","2.0.0","346246","phkpn02qx0l","gazelle","null","stimuli/gym_9.jpg","null","gym","H","non-repeat","null","289","stimuli/gym_9.jpg","","","","",""
"","","","","","image-keyboard-response","334","2.0.0","347250","phkpn02qx0l","gazelle","null","stimuli/kitchen_5.jpg","null","kitchen","I","non-repeat","null","290","stimuli/kitchen_5.jpg","","","","",""
"","","","","","image-keyboard-response","335","2.0.0","348253","phkpn02qx0l","gazelle","null","stimuli/street_56.jpg","null","street","J","non-repeat","null","291","stimuli/street_56.jpg","","","","",""
"","","","","","image-keyboard-response","336","2.0.0","349257","phkpn02qx0l","gazelle","null","stimuli/woods_35.jpg","null","woods","K","non-repeat","null","292","stimuli/woods_35.jpg","","","","",""
"","","","","","image-keyboard-response","337","2.0.0","350260","phkpn02qx0l","gazelle","null","stimuli/field_68.jpg","null","field","L","non-repeat","null","293","stimuli/field_68.jpg","","","","",""
"","","","","","image-keyboard-response","338","2.0.0","351264","phkpn02qx0l","gazelle","null","stimuli/playground_61.jpg","null","playground","G","non-repeat","null","294","stimuli/playground_61.jpg","","","","",""
"","","","","","image-keyboard-response","339","2.0.0","352268","phkpn02qx0l","gazelle","null","stimuli/playground_61.jpg","null","playground","G","repeat"," ","294","","","","","",""
"","","","","","image-keyboard-response","340","2.0.0","353272","phkpn02qx0l","gazelle","null","stimuli/gym_9.jpg","null","gym","H","non-repeat","null","295","stimuli/gym_9.jpg","","","","",""
"","","","","","image-keyboard-response","341","2.0.0","354276","phkpn02qx0l","gazelle","null","stimuli/kitchen_5.jpg","null","kitchen","I","non-repeat","null","296","stimuli/kitchen_5.jpg","","","","",""
"","","","","","image-keyboard-response","342","2.0.0","355283","phkpn02qx0l","gazelle","null","stimuli/street_56.jpg","null","street","J","non-repeat","null","297","stimuli/street_56.jpg","","","","",""
"","","","","","image-keyboard-response","343","2.0.0","356288","phkpn02qx0l","gazelle","null","stimuli/woods_35.jpg","null","woods","K","non-repeat","null","298","stimuli/woods_35.jpg","","","","",""
"","","","","","image-keyboard-response","344","2.0.0","357291","phkpn02qx0l","gazelle","null","stimuli/field_68.jpg","null","field","L","non-repeat","null","299","stimuli/field_68.jpg","","","","",""
"","","","","","image-keyboard-response","345","2.0.0","358295","phkpn02qx0l","gazelle","null","stimuli/coast_56.jpg","null","coast","A","non-repeat","null","300","stimuli/coast_56.jpg","","","","",""
"","","","","","image-keyboard-response","346","2.0.0","359298","phkpn02qx0l","gazelle","null","stimuli/stream_63.jpg","null","stream","B","non-repeat","null","301","stimuli/stream_63.jpg","","","","",""
"","","","","","image-keyboard-response","347","2.0.0","360302","phkpn02qx0l","gazelle","null","stimuli/bar_67.jpg","null","bar","C","non-repeat","null","302","stimuli/bar_67.jpg","","","","",""
"","","","","","image-keyboard-response","348","2.0.0","361306","phkpn02qx0l","gazelle","867","stimuli/bar_67.jpg"," ","bar","C","repeat"," ","302","","","","","",""
"","","","","","image-keyboard-response","349","2.0.0","362309","phkpn02qx0l","gazelle","null","stimuli/playground_61.jpg","null","playground","G","non-repeat","null","303","stimuli/playground_61.jpg","","","","",""
"","","","","","image-keyboard-response","350","2.0.0","363314","phkpn02qx0l","gazelle","null","stimuli/gym_9.jpg","null","gym","H","non-repeat","null","304","stimuli/gym_9.jpg","","","","",""
"","","","","","image-keyboard-response","351","2.0.0","364318","phkpn02qx0l","gazelle","null","stimuli/kitchen_5.jpg","null","kitchen","I","non-repeat","null","305","stimuli/kitchen_5.jpg","","","","",""
"","","","","","image-keyboard-response","352","2.0.0","365322","phkpn02qx0l","gazelle","null","stimuli/bridge_43.jpg","null","bridge","D","non-repeat","null","306","stimuli/bridge_43.jpg","","","","",""
"","","","","","image-keyboard-response","353","2.0.0","366325","phkpn02qx0l","gazelle","null","stimuli/desert_11.jpg","null","desert","E","non-repeat","null","307","stimuli/desert_11.jpg","","","","",""
"","","","","","image-keyboard-response","354","2.0.0","367330","phkpn02qx0l","gazelle","null","stimuli/bathroom_30.jpg","null","bathroom","F","non-repeat","null","308","stimuli/bathroom_30.jpg","","","","",""
"","","","","","image-keyboard-response","355","2.0.0","368333","phkpn02qx0l","gazelle","null","stimuli/coast_56.jpg","null","coast","A","non-repeat","null","309","stimuli/coast_56.jpg","","","","",""
"","","","","","image-keyboard-response","356","2.0.0","369337","phkpn02qx0l","gazelle","null","stimuli/stream_63.jpg","null","stream","B","non-repeat","null","310","stimuli/stream_63.jpg","","","","",""
"","","","","","image-keyboard-response","357","2.0.0","370341","phkpn02qx0l","gazelle","null","stimuli/bar_67.jpg","null","bar","C","non-repeat","null","311","stimuli/bar_67.jpg","","","","",""
"","","","","","image-keyboard-response","358","2.0.0","371344","phkpn02qx0l","gazelle","null","stimuli/bridge_43.jpg","null","bridge","D","non-repeat","null","312","stimuli/bridge_43.jpg","","","","",""
"","","","","","image-keyboard-response","359","2.0.0","372347","phkpn02qx0l","gazelle","null","stimuli/desert_11.jpg","null","desert","E","non-repeat","null","313","stimuli/desert_11.jpg","","","","",""
"","","","","","image-keyboard-response","360","2.0.0","373352","phkpn02qx0l","gazelle","null","stimuli/bathroom_30.jpg","null","bathroom","F","non-repeat","null","314","stimuli/bathroom_30.jpg","","","","",""
"","","","","","image-keyboard-response","361","2.0.0","374355","phkpn02qx0l","gazelle","null","stimuli/playground_61.jpg","null","playground","G","non-repeat","null","315","stimuli/playground_61.jpg","","","","",""
"","","","","","image-keyboard-response","362","2.0.0","375359","phkpn02qx0l","gazelle","null","stimuli/gym_9.jpg","null","gym","H","non-repeat","null","316","stimuli/gym_9.jpg","","","","",""
"","","","","","image-keyboard-response","363","2.0.0","376363","phkpn02qx0l","gazelle","null","stimuli/kitchen_5.jpg","null","kitchen","I","non-repeat","null","317","stimuli/kitchen_5.jpg","","","","",""
"","","","","","image-keyboard-response","364","2.0.0","377367","phkpn02qx0l","gazelle","null","stimuli/coast_56.jpg","null","coast","A","non-repeat","null","318","stimuli/coast_56.jpg","","","","",""
"","","","","","image-keyboard-response","365","2.0.0","378370","phkpn02qx0l","gazelle","null","stimuli/stream_63.jpg","null","stream","B","non-repeat","null","319","stimuli/stream_63.jpg","","","","",""
"","","","","","image-keyboard-response","366","2.0.0","379374","phkpn02qx0l","gazelle","null","stimuli/bar_67.jpg","null","bar","C","non-repeat","null","320","stimuli/bar_67.jpg","","","","",""
"","","","","","image-keyboard-response","367","2.0.0","380378","phkpn02qx0l","gazelle","null","stimuli/street_56.jpg","null","street","J","non-repeat","null","321","stimuli/street_56.jpg","","","","",""
"","","","","","image-keyboard-response","368","2.0.0","381382","phkpn02qx0l","gazelle","null","stimuli/woods_35.jpg","null","woods","K","non-repeat","null","322","stimuli/woods_35.jpg","","","","",""
"","","","","","image-keyboard-response","369","2.0.0","382385","phkpn02qx0l","gazelle","null","stimuli/field_68.jpg","null","field","L","non-repeat","null","323","stimuli/field_68.jpg","","","","",""
"","","","","","image-keyboard-response","370","2.0.0","383389","phkpn02qx0l","gazelle","null","stimuli/field_68.jpg","null","field","L","repeat"," ","323","","","","","",""
"","","","","","image-keyboard-response","371","2.0.0","384393","phkpn02qx0l","gazelle","null","stimuli/playground_61.jpg","null","playground","G","non-repeat","null","324","stimuli/playground_61.jpg","","","","",""
"","","","","","image-keyboard-response","372","2.0.0","385396","phkpn02qx0l","gazelle","630","stimuli/playground_61.jpg"," ","playground","G","repeat"," ","324","","","","","",""
"","","","","","image-keyboard-response","373","2.0.0","386400","phkpn02qx0l","gazelle","null","stimuli/gym_9.jpg","null","gym","H","non-repeat","null","325","stimuli/gym_9.jpg","","","","",""
"","","","","","image-keyboard-response","374","2.0.0","387403","phkpn02qx0l","gazelle","null","stimuli/kitchen_5.jpg","null","kitchen","I","non-repeat","null","326","stimuli/kitchen_5.jpg","","","","",""
"","","","","","image-keyboard-response","375","2.0.0","388407","phkpn02qx0l","gazelle","null","stimuli/street_56.jpg","null","street","J","non-repeat","null","327","stimuli/street_56.jpg","","","","",""
"","","","","","image-keyboard-response","376","2.0.0","389410","phkpn02qx0l","gazelle","null","stimuli/woods_35.jpg","null","woods","K","non-repeat","null","328","stimuli/woods_35.jpg","","","","",""
"","","","","","image-keyboard-response","377","2.0.0","390413","phkpn02qx0l","gazelle","null","stimuli/field_68.jpg","null","field","L","non-repeat","null","329","stimuli/field_68.jpg","","","","",""
"","","","","","image-keyboard-response","378","2.0.0","391417","phkpn02qx0l","gazelle","null","stimuli/field_68.jpg","null","field","L","repeat"," ","329","","","","","",""
"","","","","","image-keyboard-response","379","2.0.0","392421","phkpn02qx0l","gazelle","null","stimuli/bridge_43.jpg","null","bridge","D","non-repeat","null","330","stimuli/bridge_43.jpg","","","","",""
"","","","","","image-keyboard-response","380","2.0.0","393425","phkpn02qx0l","gazelle","null","stimuli/desert_11.jpg","null","desert","E","non-repeat","null","331","stimuli/desert_11.jpg","","","","",""
"","","","","","image-keyboard-response","381","2.0.0","394428","phkpn02qx0l","gazelle","null","stimuli/bathroom_30.jpg","null","bathroom","F","non-repeat","null","332","stimuli/bathroom_30.jpg","","","","",""
"","","","","","image-keyboard-response","382","2.0.0","395432","phkpn02qx0l","gazelle","null","stimuli/street_56.jpg","null","street","J","non-repeat","null","333","stimuli/street_56.jpg","","","","",""
"","","","","","image-keyboard-response","383","2.0.0","396436","phkpn02qx0l","gazelle","null","stimuli/woods_35.jpg","null","woods","K","non-repeat","null","334","stimuli/woods_35.jpg","","","","",""
"","","","","","image-keyboard-response","384","2.0.0","397439","phkpn02qx0l","gazelle","null","stimuli/field_68.jpg","null","field","L","non-repeat","null","335","stimuli/field_68.jpg","","","","",""
"","","","","","image-keyboard-response","385","2.0.0","398443","phkpn02qx0l","gazelle","null","stimuli/coast_56.jpg","null","coast","A","non-repeat","null","336","stimuli/coast_56.jpg","","","","",""
"","","","","","image-keyboard-response","386","2.0.0","399447","phkpn02qx0l","gazelle","null","stimuli/stream_63.jpg","null","stream","B","non-repeat","null","337","stimuli/stream_63.jpg","","","","",""
"","","","","","image-keyboard-response","387","2.0.0","400450","phkpn02qx0l","gazelle","null","stimuli/bar_67.jpg","null","bar","C","non-repeat","null","338","stimuli/bar_67.jpg","","","","",""
"","","","","","image-keyboard-response","388","2.0.0","401454","phkpn02qx0l","gazelle","null","stimuli/bridge_43.jpg","null","bridge","D","non-repeat","null","339","stimuli/bridge_43.jpg","","","","",""
"","","","","","image-keyboard-response","389","2.0.0","402458","phkpn02qx0l","gazelle","null","stimuli/desert_11.jpg","null","desert","E","non-repeat","null","340","stimuli/desert_11.jpg","","","","",""
"","","","","","image-keyboard-response","390","2.0.0","403462","phkpn02qx0l","gazelle","null","stimuli/bathroom_30.jpg","null","bathroom","F","non-repeat","null","341","stimuli/bathroom_30.jpg","","","","",""
"","","","","","image-keyboard-response","391","2.0.0","404465","phkpn02qx0l","gazelle","null","stimuli/playground_61.jpg","null","playground","G","non-repeat","null","342","stimuli/playground_61.jpg","","","","",""
"","","","","","image-keyboard-response","392","2.0.0","405469","phkpn02qx0l","gazelle","null","stimuli/playground_61.jpg","null","playground","G","repeat"," ","342","","","","","",""
"","","","","","image-keyboard-response","393","2.0.0","406473","phkpn02qx0l","gazelle","null","stimuli/gym_9.jpg","null","gym","H","non-repeat","null","343","stimuli/gym_9.jpg","","","","",""
"","","","","","image-keyboard-response","394","2.0.0","407477","phkpn02qx0l","gazelle","null","stimuli/kitchen_5.jpg","null","kitchen","I","non-repeat","null","344","stimuli/kitchen_5.jpg","","","","",""
"","","","","","image-keyboard-response","395","2.0.0","408480","phkpn02qx0l","gazelle","null","stimuli/coast_56.jpg","null","coast","A","non-repeat","null","345","stimuli/coast_56.jpg","","","","",""
"","","","","","image-keyboard-response","396","2.0.0","409484","phkpn02qx0l","gazelle","null","stimuli/stream_63.jpg","null","stream","B","non-repeat","null","346","stimuli/stream_63.jpg","","","","",""
"","","","","","image-keyboard-response","397","2.0.0","410488","phkpn02qx0l","gazelle","null","stimuli/bar_67.jpg","null","bar","C","non-repeat","null","347","stimuli/bar_67.jpg","","","","",""
"","","","","","image-keyboard-response","398","2.0.0","411492","phkpn02qx0l","gazelle","null","stimuli/street_56.jpg","null","street","J","non-repeat","null","348","stimuli/street_56.jpg","","","","",""
"","","","","","image-keyboard-response","399","2.0.0","412495","phkpn02qx0l","gazelle","950","stimuli/street_56.jpg"," ","street","J","repeat"," ","348","","","","","",""
"","","","","","image-keyboard-response","400","2.0.0","413498","phkpn02qx0l","gazelle","null","stimuli/woods_35.jpg","null","woods","K","non-repeat","null","349","stimuli/woods_35.jpg","","","","",""
"","","","","","image-keyboard-response","401","2.0.0","414503","phkpn02qx0l","gazelle","null","stimuli/field_68.jpg","null","field","L","non-repeat","null","350","stimuli/field_68.jpg","","","","",""
"","","","","","image-keyboard-response","402","2.0.0","415506","phkpn02qx0l","gazelle","null","stimuli/bridge_43.jpg","null","bridge","D","non-repeat","null","351","stimuli/bridge_43.jpg","","","","",""
"","","","","","image-keyboard-response","403","2.0.0","416510","phkpn02qx0l","gazelle","null","stimuli/bridge_43.jpg","null","bridge","D","repeat"," ","351","","","","","",""
"","","","","","image-keyboard-response","404","2.0.0","417514","phkpn02qx0l","gazelle","null","stimuli/desert_11.jpg","null","desert","E","non-repeat","null","352","stimuli/desert_11.jpg","","","","",""
"","","","","","image-keyboard-response","405","2.0.0","418518","phkpn02qx0l","gazelle","null","stimuli/bathroom_30.jpg","null","bathroom","F","non-repeat","null","353","stimuli/bathroom_30.jpg","","","","",""
"","","","","","image-keyboard-response","406","2.0.0","419522","phkpn02qx0l","gazelle","null","stimuli/playground_61.jpg","null","playground","G","non-repeat","null","354","stimuli/playground_61.jpg","","","","",""
"","","","","","image-keyboard-response","407","2.0.0","420526","phkpn02qx0l","gazelle","null","stimuli/gym_9.jpg","null","gym","H","non-repeat","null","355","stimuli/gym_9.jpg","","","","",""
"","","","","","image-keyboard-response","408","2.0.0","421530","phkpn02qx0l","gazelle","null","stimuli/kitchen_5.jpg","null","kitchen","I","non-repeat","null","356","stimuli/kitchen_5.jpg","","","","",""
"","","","","","image-keyboard-response","409","2.0.0","422534","phkpn02qx0l","gazelle","null","stimuli/bridge_43.jpg","null","bridge","D","non-repeat","null","357","stimuli/bridge_43.jpg","","","","",""
"","","","","","image-keyboard-response","410","2.0.0","423538","phkpn02qx0l","gazelle","687","stimuli/bridge_43.jpg"," ","bridge","D","repeat"," ","357","","","","","",""
"","","","","","image-keyboard-response","411","2.0.0","424542","phkpn02qx0l","gazelle","null","stimuli/desert_11.jpg","null","desert","E","non-repeat","null","358","stimuli/desert_11.jpg","","","","",""
"","","","","","image-keyboard-response","412","2.0.0","425546","phkpn02qx0l","gazelle","null","stimuli/bathroom_30.jpg","null","bathroom","F","non-repeat","null","359","stimuli/bathroom_30.jpg","","","","",""
"","","","","","image-keyboard-response","413","2.0.0","426550","phkpn02qx0l","gazelle","null","stimuli/playground_61.jpg","null","playground","G","non-repeat","null","360","stimuli/playground_61.jpg","","","","",""
"","","","","","image-keyboard-response","414","2.0.0","427554","phkpn02qx0l","gazelle","389","stimuli/playground_61.jpg"," ","playground","G","repeat"," ","360","","","","","",""
"","","","","","image-keyboard-response","415","2.0.0","428558","phkpn02qx0l","gazelle","null","stimuli/gym_9.jpg","null","gym","H","non-repeat","null","361","stimuli/gym_9.jpg","","","","",""
"","","","","","image-keyboard-response","416","2.0.0","429561","phkpn02qx0l","gazelle","null","stimuli/kitchen_5.jpg","null","kitchen","I","non-repeat","null","362","stimuli/kitchen_5.jpg","","","","",""
"","","","","","image-keyboard-response","417","2.0.0","430565","phkpn02qx0l","gazelle","null","stimuli/coast_56.jpg","null","coast","A","non-repeat","null","363","stimuli/coast_56.jpg","","","","",""
"","","","","","image-keyboard-response","418","2.0.0","431569","phkpn02qx0l","gazelle","null","stimuli/stream_63.jpg","null","stream","B","non-repeat","null","364","stimuli/stream_63.jpg","","","","",""
"","","","","","image-keyboard-response","419","2.0.0","432573","phkpn02qx0l","gazelle","null","stimuli/bar_67.jpg","null","bar","C","non-repeat","null","365","stimuli/bar_67.jpg","","","","",""
"","","","","","image-keyboard-response","420","2.0.0","433577","phkpn02qx0l","gazelle","null","stimuli/bridge_43.jpg","null","bridge","D","non-repeat","null","366","stimuli/bridge_43.jpg","","","","",""
"","","","","","image-keyboard-response","421","2.0.0","434581","phkpn02qx0l","gazelle","545","stimuli/bridge_43.jpg"," ","bridge","D","repeat"," ","366","","","","","",""
"","","","","","image-keyboard-response","422","2.0.0","435586","phkpn02qx0l","gazelle","null","stimuli/desert_11.jpg","null","desert","E","non-repeat","null","367","stimuli/desert_11.jpg","","","","",""
"","","","","","image-keyboard-response","423","2.0.0","436590","phkpn02qx0l","gazelle","null","stimuli/bathroom_30.jpg","null","bathroom","F","non-repeat","null","368","stimuli/bathroom_30.jpg","","","","",""
"","","","","","image-keyboard-response","424","2.0.0","437593","phkpn02qx0l","gazelle","null","stimuli/coast_56.jpg","null","coast","A","non-repeat","null","369","stimuli/coast_56.jpg","","","","",""
"","","","","","image-keyboard-response","425","2.0.0","438597","phkpn02qx0l","gazelle","null","stimuli/stream_63.jpg","null","stream","B","non-repeat","null","370","stimuli/stream_63.jpg","","","","",""
"","","","","","image-keyboard-response","426","2.0.0","439601","phkpn02qx0l","gazelle","null","stimuli/bar_67.jpg","null","bar","C","non-repeat","null","371","stimuli/bar_67.jpg","","","","",""
"","","","","","image-keyboard-response","427","2.0.0","440604","phkpn02qx0l","gazelle","null","stimuli/bridge_43.jpg","null","bridge","D","non-repeat","null","372","stimuli/bridge_43.jpg","","","","",""
"","","","","","image-keyboard-response","428","2.0.0","441612","phkpn02qx0l","gazelle","null","stimuli/desert_11.jpg","null","desert","E","non-repeat","null","373","stimuli/desert_11.jpg","","","","",""
"","","","","","image-keyboard-response","429","2.0.0","442616","phkpn02qx0l","gazelle","null","stimuli/bathroom_30.jpg","null","bathroom","F","non-repeat","null","374","stimuli/bathroom_30.jpg","","","","",""
"","","","","","image-keyboard-response","430","2.0.0","443619","phkpn02qx0l","gazelle","493","stimuli/bathroom_30.jpg"," ","bathroom","F","repeat"," ","374","","","","","",""
"","","","","","image-keyboard-response","431","2.0.0","444624","phkpn02qx0l","gazelle","null","stimuli/playground_61.jpg","null","playground","G","non-repeat","null","375","stimuli/playground_61.jpg","","","","",""
"","","","","","image-keyboard-response","432","2.0.0","445628","phkpn02qx0l","gazelle","null","stimuli/gym_9.jpg","null","gym","H","non-repeat","null","376","stimuli/gym_9.jpg","","","","",""
"","","","","","image-keyboard-response","433","2.0.0","446631","phkpn02qx0l","gazelle","null","stimuli/kitchen_5.jpg","null","kitchen","I","non-repeat","null","377","stimuli/kitchen_5.jpg","","","","",""
"","","","","","image-keyboard-response","434","2.0.0","447635","phkpn02qx0l","gazelle","null","stimuli/street_56.jpg","null","street","J","non-repeat","null","378","stimuli/street_56.jpg","","","","",""
"","","","","","image-keyboard-response","435","2.0.0","448639","phkpn02qx0l","gazelle","383","stimuli/street_56.jpg"," ","street","J","repeat"," ","378","","","","","",""
"","","","","","image-keyboard-response","436","2.0.0","449643","phkpn02qx0l","gazelle","null","stimuli/woods_35.jpg","null","woods","K","non-repeat","null","379","stimuli/woods_35.jpg","","","","",""
"","","","","","image-keyboard-response","437","2.0.0","450647","phkpn02qx0l","gazelle","null","stimuli/field_68.jpg","null","field","L","non-repeat","null","380","stimuli/field_68.jpg","","","","",""
"","","","","","image-keyboard-response","438","2.0.0","451651","phkpn02qx0l","gazelle","null","stimuli/coast_56.jpg","null","coast","A","non-repeat","null","381","stimuli/coast_56.jpg","","","","",""
"","","","","","image-keyboard-response","439","2.0.0","452655","phkpn02qx0l","gazelle","null","stimuli/stream_63.jpg","null","stream","B","non-repeat","null","382","stimuli/stream_63.jpg","","","","",""
"","","","","","image-keyboard-response","440","2.0.0","453658","phkpn02qx0l","gazelle","null","stimuli/bar_67.jpg","null","bar","C","non-repeat","null","383","stimuli/bar_67.jpg","","","","",""
"","","","","","image-keyboard-response","441","2.0.0","454662","phkpn02qx0l","gazelle","null","stimuli/street_56.jpg","null","street","J","non-repeat","null","384","stimuli/street_56.jpg","","","","",""
"","","","","","image-keyboard-response","442","2.0.0","455666","phkpn02qx0l","gazelle","null","stimuli/woods_35.jpg","null","woods","K","non-repeat","null","385","stimuli/woods_35.jpg","","","","",""
"","","","","","image-keyboard-response","443","2.0.0","456670","phkpn02qx0l","gazelle","null","stimuli/field_68.jpg","null","field","L","non-repeat","null","386","stimuli/field_68.jpg","","","","",""
"","","","","","image-keyboard-response","444","2.0.0","457673","phkpn02qx0l","gazelle","null","stimuli/playground_61.jpg","null","playground","G","non-repeat","null","387","stimuli/playground_61.jpg","","","","",""
"","","","","","image-keyboard-response","445","2.0.0","458677","phkpn02qx0l","gazelle","null","stimuli/gym_9.jpg","null","gym","H","non-repeat","null","388","stimuli/gym_9.jpg","","","","",""
"","","","","","image-keyboard-response","446","2.0.0","459681","phkpn02qx0l","gazelle","null","stimuli/kitchen_5.jpg","null","kitchen","I","non-repeat","null","389","stimuli/kitchen_5.jpg","","","","",""
"","","","","","image-keyboard-response","447","2.0.0","460685","phkpn02qx0l","gazelle","null","stimuli/street_56.jpg","null","street","J","non-repeat","null","390","stimuli/street_56.jpg","","","","",""
"","","","","","image-keyboard-response","448","2.0.0","461689","phkpn02qx0l","gazelle","null","stimuli/woods_35.jpg","null","woods","K","non-repeat","null","391","stimuli/woods_35.jpg","","","","",""
"","","","","","image-keyboard-response","449","2.0.0","462693","phkpn02qx0l","gazelle","null","stimuli/field_68.jpg","null","field","L","non-repeat","null","392","stimuli/field_68.jpg","","","","",""
"","","","","","image-keyboard-response","450","2.0.0","463697","phkpn02qx0l","gazelle","null","stimuli/bridge_43.jpg","null","bridge","D","non-repeat","null","393","stimuli/bridge_43.jpg","","","","",""
"","","","","","image-keyboard-response","451","2.0.0","464701","phkpn02qx0l","gazelle","null","stimuli/desert_11.jpg","null","desert","E","non-repeat","null","394","stimuli/desert_11.jpg","","","","",""
"","","","","","image-keyboard-response","452","2.0.0","465705","phkpn02qx0l","gazelle","null","stimuli/bathroom_30.jpg","null","bathroom","F","non-repeat","null","395","stimuli/bathroom_30.jpg","","","","",""
"","","","","","image-keyboard-response","453","2.0.0","466709","phkpn02qx0l","gazelle","null","stimuli/coast_56.jpg","null","coast","A","non-repeat","null","396","stimuli/coast_56.jpg","","","","",""
"","","","","","image-keyboard-response","454","2.0.0","467713","phkpn02qx0l","gazelle","null","stimuli/stream_63.jpg","null","stream","B","non-repeat","null","397","stimuli/stream_63.jpg","","","","",""
"","","","","","image-keyboard-response","455","2.0.0","468716","phkpn02qx0l","gazelle","null","stimuli/bar_67.jpg","null","bar","C","non-repeat","null","398","stimuli/bar_67.jpg","","","","",""
"","","","","","image-keyboard-response","456","2.0.0","469720","phkpn02qx0l","gazelle","null","stimuli/playground_61.jpg","null","playground","G","non-repeat","null","399","stimuli/playground_61.jpg","","","","",""
"","","","","","image-keyboard-response","457","2.0.0","470723","phkpn02qx0l","gazelle","null","stimuli/gym_9.jpg","null","gym","H","non-repeat","null","400","stimuli/gym_9.jpg","","","","",""
"","","","","","image-keyboard-response","458","2.0.0","471727","phkpn02qx0l","gazelle","null","stimuli/kitchen_5.jpg","null","kitchen","I","non-repeat","null","401","stimuli/kitchen_5.jpg","","","","",""
"","","","","","image-keyboard-response","459","2.0.0","472730","phkpn02qx0l","gazelle","null","stimuli/bridge_43.jpg","null","bridge","D","non-repeat","null","402","stimuli/bridge_43.jpg","","","","",""
"","","","","","image-keyboard-response","460","2.0.0","473734","phkpn02qx0l","gazelle","null","stimuli/desert_11.jpg","null","desert","E","non-repeat","null","403","stimuli/desert_11.jpg","","","","",""
"","","","","","image-keyboard-response","461","2.0.0","474738","phkpn02qx0l","gazelle","null","stimuli/bathroom_30.jpg","null","bathroom","F","non-repeat","null","404","stimuli/bathroom_30.jpg","","","","",""
"","","","","","image-keyboard-response","462","2.0.0","475742","phkpn02qx0l","gazelle","null","stimuli/coast_56.jpg","null","coast","A","non-repeat","null","405","stimuli/coast_56.jpg","","","","",""
"","","","","","image-keyboard-response","463","2.0.0","476746","phkpn02qx0l","gazelle","null","stimuli/stream_63.jpg","null","stream","B","non-repeat","null","406","stimuli/stream_63.jpg","","","","",""
"","","","","","image-keyboard-response","464","2.0.0","477750","phkpn02qx0l","gazelle","null","stimuli/bar_67.jpg","null","bar","C","non-repeat","null","407","stimuli/bar_67.jpg","","","","",""
"","","","","","image-keyboard-response","465","2.0.0","478754","phkpn02qx0l","gazelle","null","stimuli/street_56.jpg","null","street","J","non-repeat","null","408","stimuli/street_56.jpg","","","","",""
"","","","","","image-keyboard-response","466","2.0.0","479757","phkpn02qx0l","gazelle","null","stimuli/woods_35.jpg","null","woods","K","non-repeat","null","409","stimuli/woods_35.jpg","","","","",""
"","","","","","image-keyboard-response","467","2.0.0","480762","phkpn02qx0l","gazelle","null","stimuli/field_68.jpg","null","field","L","non-repeat","null","410","stimuli/field_68.jpg","","","","",""
"","","","","","image-keyboard-response","468","2.0.0","481765","phkpn02qx0l","gazelle","null","stimuli/playground_61.jpg","null","playground","G","non-repeat","null","411","stimuli/playground_61.jpg","","","","",""
"","","","","","image-keyboard-response","469","2.0.0","482768","phkpn02qx0l","gazelle","null","stimuli/gym_9.jpg","null","gym","H","non-repeat","null","412","stimuli/gym_9.jpg","","","","",""
"","","","","","image-keyboard-response","470","2.0.0","483772","phkpn02qx0l","gazelle","null","stimuli/kitchen_5.jpg","null","kitchen","I","non-repeat","null","413","stimuli/kitchen_5.jpg","","","","",""
"","","","","","image-keyboard-response","471","2.0.0","484777","phkpn02qx0l","gazelle","null","stimuli/coast_56.jpg","null","coast","A","non-repeat","null","414","stimuli/coast_56.jpg","","","","",""
"","","","","","image-keyboard-response","472","2.0.0","485781","phkpn02qx0l","gazelle","null","stimuli/stream_63.jpg","null","stream","B","non-repeat","null","415","stimuli/stream_63.jpg","","","","",""
"","","","","","image-keyboard-response","473","2.0.0","486785","phkpn02qx0l","gazelle","null","stimuli/bar_67.jpg","null","bar","C","non-repeat","null","416","stimuli/bar_67.jpg","","","","",""
"","","","","","image-keyboard-response","474","2.0.0","487789","phkpn02qx0l","gazelle","555","stimuli/bar_67.jpg"," ","bar","C","repeat"," ","416","","","","","",""
"","","","","","image-keyboard-response","475","2.0.0","488793","phkpn02qx0l","gazelle","null","stimuli/playground_61.jpg","null","playground","G","non-repeat","null","417","stimuli/playground_61.jpg","","","","",""
"","","","","","image-keyboard-response","476","2.0.0","489797","phkpn02qx0l","gazelle","null","stimuli/playground_61.jpg","null","playground","G","repeat"," ","417","","","","","",""
"","","","","","image-keyboard-response","477","2.0.0","490801","phkpn02qx0l","gazelle","68","stimuli/gym_9.jpg"," ","gym","H","non-repeat","null","418","stimuli/gym_9.jpg","","","","",""
"","","","","","image-keyboard-response","478","2.0.0","491804","phkpn02qx0l","gazelle","null","stimuli/kitchen_5.jpg","null","kitchen","I","non-repeat","null","419","stimuli/kitchen_5.jpg","","","","",""
"","","","","","image-keyboard-response","479","2.0.0","492808","phkpn02qx0l","gazelle","null","stimuli/bridge_43.jpg","null","bridge","D","non-repeat","null","420","stimuli/bridge_43.jpg","","","","",""
"","","","","","image-keyboard-response","480","2.0.0","493812","phkpn02qx0l","gazelle","null","stimuli/desert_11.jpg","null","desert","E","non-repeat","null","421","stimuli/desert_11.jpg","","","","",""
"","","","","","image-keyboard-response","481","2.0.0","494816","phkpn02qx0l","gazelle","null","stimuli/bathroom_30.jpg","null","bathroom","F","non-repeat","null","422","stimuli/bathroom_30.jpg","","","","",""
"","","","","","html-keyboard-response","482","2.0.0","497713","phkpn02qx0l","gazelle","2895","
    <div style='width:900px;margin: auto;'><p>In the next part of the experiment, we want to see how well you learned the structure in the stream of images.</p>
    <p>On each trial, you will see two sequences of three images, sequence 1 and 2. We will ask you to indicate which sequence was more familiar based on the first part of the experiment.</p>
    <p>Press 1 if the first sequence (sequence 1) felt more familiar. Press 2 if the second sequence (sequence 2) felt more familiar.</p>
    <p>Press any key to begin.</p></div>"," ","","","","","","","","","","",""
"","","","","","html-keyboard-response","483","2.0.0","498716","phkpn02qx0l","gazelle","null","<p>Sequence 1</p>","null","","","","","","","","","","",""
"","","","","","image-keyboard-response","484","2.0.0","499720","phkpn02qx0l","gazelle","null","stimuli/playground_61.jpg","null","","","","","","","","","","",""
"","","","","","image-keyboard-response","485","2.0.0","500724","phkpn02qx0l","gazelle","null","stimuli/gym_9.jpg","null","","","","","","","","","","",""
"","","","","","image-keyboard-response","486","2.0.0","501727","phkpn02qx0l","gazelle","null","stimuli/kitchen_5.jpg","null","","","","","","","","","","",""
"","","","","","html-keyboard-response","487","2.0.0","502729","phkpn02qx0l","gazelle","null","<p></p>","null","","","","","","","","","","",""
"","","","","","html-keyboard-response","488","2.0.0","503733","phkpn02qx0l","gazelle","null","<p>Sequence 2</p>","null","","","","","","","","","","",""
"","","","","","image-keyboard-response","489","2.0.0","504737","phkpn02qx0l","gazelle","null","stimuli/playground_61.jpg","null","","","","","","","","","","",""
"","","","","","image-keyboard-response","490","2.0.0","505740","phkpn02qx0l","gazelle","null","stimuli/woods_35.jpg","null","","","","","","","","","","",""
"","","","","","image-keyboard-response","491","2.0.0","506744","phkpn02qx0l","gazelle","null","stimuli/bar_67.jpg","null","","","","","","","","","","",""
"","","","","","html-keyboard-response","492","2.0.0","508053","phkpn02qx0l","gazelle","1307","<p>Press '1' if the first sequence was familiar, '2' if the second was.</p>","1","","","1","","","","[""G"",""H"",""I""]","[""G"",""K"",""C""]","true","[""<p>Sequence 1</p>"",""stimuli/playground_61.jpg"",""stimuli/gym_9.jpg"",""stimuli/kitchen_5.jpg""]","[""<p>Sequence 2</p>"",""stimuli/playground_61.jpg"",""stimuli/woods_35.jpg"",""stimuli/bar_67.jpg""]"
"","","","","","html-keyboard-response","493","2.0.0","509056","phkpn02qx0l","gazelle","null","<p>Sequence 1</p>","null","","","","","","","","","","",""
"","","","","","image-keyboard-response","494","2.0.0","510060","phkpn02qx0l","gazelle","null","stimuli/coast_56.jpg","null","","","","","","","","","","",""
"","","","","","image-keyboard-response","495","2.0.0","511064","phkpn02qx0l","gazelle","null","stimuli/stream_63.jpg","null","","","","","","","","","","",""
"","","","","","image-keyboard-response","496","2.0.0","512067","phkpn02qx0l","gazelle","null","stimuli/bar_67.jpg","null","","","","","","","","","","",""
