"success","timeout","failed_images","failed_audio","failed_video","trial_type","trial_index","plugin_version","time_elapsed","random_id","participant","rt","stimulus","response","category","letter","correct_response","correct_response_key","trial_counter","current_image","test_triplet","foil_triplet","correct","firstSequencePaths","secondSequencePaths"
"true","false","[]","[]","[]","preload","0","2.0.0","246","pkr5zwjoqfy","falcon","","","","","","","","","","","","","",""
"true","","","","","fullscreen","1","null","2876","pkr5zwjoqfy","falcon","1626","","","","","","","","","","","","",""
"","","","","","html-keyboard-response","2","2.0.0","4235","pkr5zwjoqfy","falcon","1356","Welcome to the experiment. Press any key to begin."," ","","","","","","","","","","",""
"","","","","","survey-text","3","2.0.0","7076","pkr5zwjoqfy","falcon","2837","","{""participant_id"":""falcon""}","","","","","","","","","","",""
"","","","","","html-keyboard-response","4","2.0.0","145997","pkr5zwjoqfy","falcon","138922","
  <p>For this trial, you will see a series of images.</p>
  <p><b>Press the spacebar whenever you see the same image appear twice in a row.</b></p>
  <p>In other words, whenever the same image repeats back to back, press the spacebar.</p>
  <p>Press any key to begin.</p>"," ","","","","","","","","","","",""
"","","","","","image-keyboard-response","5","2.0.0","147003","pkr5zwjoqfy","falcon","null","stimuli/street_28.jpg","null","street","G","non-repeat","null","0","stimuli/street_28.jpg","","","","",""
"","","","","","image-keyboard-response","6","2.0.0","148007","pkr5zwjoqfy","falcon","null","stimuli/bathroom_50.jpg","null","bathroom","H","non-repeat","null","1","stimuli/bathroom_50.jpg","","","","",""
"","","","","","image-keyboard-response","7","2.0.0","149011","pkr5zwjoqfy","falcon","null","stimuli/bar_58.jpg","null","bar","I","non-repeat","null","2","stimuli/bar_58.jpg","","","","",""
"","","","","","image-keyboard-response","8","2.0.0","150016","pkr5zwjoqfy","falcon","null","stimuli/coast_33.jpg","null","coast","J","non-repeat","null","3","stimuli/coast_33.jpg","","","","",""
"","","","","","image-keyboard-response","9","2.0.0","151020","pkr5zwjoqfy","falcon","null","stimuli/woods_51.jpg","null","woods","K","non-repeat","null","4","stimuli/woods_51.jpg","","","","",""
"","","","","","image-keyboard-response","10","2.0.0","152024","pkr5zwjoqfy","falcon","null","stimuli/field_27.jpg","null","field","L","non-repeat","null","5","stimuli/field_27.jpg","","","","",""
"","","","","","image-keyboard-response","11","2.0.0","153028","pkr5zwjoqfy","falcon","null","stimuli/street_28.jpg","null","street","G","non-repeat","null","6","stimuli/street_28.jpg","","","","",""
"","","","","","image-keyboard-response","12","2.0.0","154033","pkr5zwjoqfy","falcon","null","stimuli/bathroom_50.jpg","null","bathroom","H","non-repeat","null","7","stimuli/bathroom_50.jpg","","","","",""
"","","","","","image-keyboard-response","13","2.0.0","155037","pkr5zwjoqfy","falcon","null","stimuli/bar_58.jpg","null","bar","I","non-repeat","null","8","stimuli/bar_58.jpg","","","","",""
"","","","","","image-keyboard-response","14","2.0.0","156042","pkr5zwjoqfy","falcon","null","stimuli/playground_38.jpg","null","playground","D","non-repeat","null","9","stimuli/playground_38.jpg","","","","",""
"","","","","","image-keyboard-response","15","2.0.0","157046","pkr5zwjoqfy","falcon","null","stimuli/gym_21.jpg","null","gym","E","non-repeat","null","10","stimuli/gym_21.jpg","","","","",""
"","","","","","image-keyboard-response","16","2.0.0","158050","pkr5zwjoqfy","falcon","null","stimuli/bridge_11.jpg","null","bridge","F","non-repeat","null","11","stimuli/bridge_11.jpg","","","","",""
"","","","","","image-keyboard-response","17","2.0.0","159054","pkr5zwjoqfy","falcon","null","stimuli/street_28.jpg","null","street","G","non-repeat","null","12","stimuli/street_28.jpg","","","","",""
"","","","","","image-keyboard-response","18","2.0.0","160059","pkr5zwjoqfy","falcon","null","stimuli/bathroom_50.jpg","null","bathroom","H","non-repeat","null","13","stimuli/bathroom_50.jpg","","","","",""
"","","","","","image-keyboard-response","19","2.0.0","161064","pkr5zwjoqfy","falcon","872","stimuli/bar_58.jpg"," ","bar","I","non-repeat","null","14","stimuli/bar_58.jpg","","","","",""
"","","","","","image-keyboard-response","20","2.0.0","162069","pkr5zwjoqfy","falcon","null","stimuli/playground_38.jpg","null","playground","D","non-repeat","null","15","stimuli/playground_38.jpg","","","","",""
"","","","","","image-keyboard-response","21","2.0.0","163073","pkr5zwjoqfy","falcon","null","stimuli/gym_21.jpg","null","gym","E","non-repeat","null","16","stimuli/gym_21.jpg","","","","",""
"","","","","","image-keyboard-response","22","2.0.0","164078","pkr5zwjoqfy","falcon","null","stimuli/bridge_11.jpg","null","bridge","F","non-repeat","null","17","stimuli/bridge_11.jpg","","","","",""
"","","","","","image-keyboard-response","23","2.0.0","165083","pkr5zwjoqfy","falcon","null","stimuli/coast_33.jpg","null","coast","J","non-repeat","null","18","stimuli/coast_33.jpg","","","","",""
"","","","","","image-keyboard-response","24","2.0.0","166087","pkr5zwjoqfy","falcon","560","stimuli/woods_51.jpg"," ","woods","K","non-repeat","null","19","stimuli/woods_51.jpg","","","","",""
"","","","","","image-keyboard-response","25","2.0.0","167092","pkr5zwjoqfy","falcon","null","stimuli/field_27.jpg","null","field","L","non-repeat","null","20","stimuli/field_27.jpg","","","","",""
"","","","","","image-keyboard-response","26","2.0.0","168096","pkr5zwjoqfy","falcon","557","stimuli/street_28.jpg"," ","street","G","non-repeat","null","21","stimuli/street_28.jpg","","","","",""
"","","","","","image-keyboard-response","27","2.0.0","169101","pkr5zwjoqfy","falcon","442","stimuli/street_28.jpg"," ","street","G","repeat"," ","21","","","","","",""
"","","","","","image-keyboard-response","28","2.0.0","170106","pkr5zwjoqfy","falcon","null","stimuli/bathroom_50.jpg","null","bathroom","H","non-repeat","null","22","stimuli/bathroom_50.jpg","","","","",""
"","","","","","image-keyboard-response","29","2.0.0","171110","pkr5zwjoqfy","falcon","712","stimuli/bar_58.jpg"," ","bar","I","non-repeat","null","23","stimuli/bar_58.jpg","","","","",""
"","","","","","image-keyboard-response","30","2.0.0","172114","pkr5zwjoqfy","falcon","null","stimuli/desert_51.jpg","null","desert","A","non-repeat","null","24","stimuli/desert_51.jpg","","","","",""
"","","","","","image-keyboard-response","31","2.0.0","173118","pkr5zwjoqfy","falcon","420","stimuli/desert_51.jpg"," ","desert","A","repeat"," ","24","","","","","",""
"","","","","","image-keyboard-response","32","2.0.0","174123","pkr5zwjoqfy","falcon","null","stimuli/stream_8.jpg","null","stream","B","non-repeat","null","25","stimuli/stream_8.jpg","","","","",""
"","","","","","image-keyboard-response","33","2.0.0","175126","pkr5zwjoqfy","falcon","null","stimuli/kitchen_23.jpg","null","kitchen","C","non-repeat","null","26","stimuli/kitchen_23.jpg","","","","",""
"","","","","","image-keyboard-response","34","2.0.0","176129","pkr5zwjoqfy","falcon","null","stimuli/coast_33.jpg","null","coast","J","non-repeat","null","27","stimuli/coast_33.jpg","","","","",""
"","","","","","image-keyboard-response","35","2.0.0","177134","pkr5zwjoqfy","falcon","447","stimuli/woods_51.jpg"," ","woods","K","non-repeat","null","28","stimuli/woods_51.jpg","","","","",""
"","","","","","image-keyboard-response","36","2.0.0","178138","pkr5zwjoqfy","falcon","387","stimuli/field_27.jpg"," ","field","L","non-repeat","null","29","stimuli/field_27.jpg","","","","",""
"","","","","","image-keyboard-response","37","2.0.0","179142","pkr5zwjoqfy","falcon","null","stimuli/playground_38.jpg","null","playground","D","non-repeat","null","30","stimuli/playground_38.jpg","","","","",""
"","","","","","image-keyboard-response","38","2.0.0","180147","pkr5zwjoqfy","falcon","650","stimuli/playground_38.jpg"," ","playground","D","repeat"," ","30","","","","","",""
"","","","","","image-keyboard-response","39","2.0.0","181151","pkr5zwjoqfy","falcon","null","stimuli/gym_21.jpg","null","gym","E","non-repeat","null","31","stimuli/gym_21.jpg","","","","",""
"","","","","","image-keyboard-response","40","2.0.0","182155","pkr5zwjoqfy","falcon","null","stimuli/bridge_11.jpg","null","bridge","F","non-repeat","null","32","stimuli/bridge_11.jpg","","","","",""
"","","","","","image-keyboard-response","41","2.0.0","183160","pkr5zwjoqfy","falcon","453","stimuli/bridge_11.jpg"," ","bridge","F","repeat"," ","32","","","","","",""
"","","","","","image-keyboard-response","42","2.0.0","184164","pkr5zwjoqfy","falcon","null","stimuli/desert_51.jpg","null","desert","A","non-repeat","null","33","stimuli/desert_51.jpg","","","","",""
"","","","","","image-keyboard-response","43","2.0.0","185168","pkr5zwjoqfy","falcon","null","stimuli/stream_8.jpg","null","stream","B","non-repeat","null","34","stimuli/stream_8.jpg","","","","",""
"","","","","","image-keyboard-response","44","2.0.0","186173","pkr5zwjoqfy","falcon","null","stimuli/kitchen_23.jpg","null","kitchen","C","non-repeat","null","35","stimuli/kitchen_23.jpg","","","","",""
"","","","","","image-keyboard-response","45","2.0.0","187177","pkr5zwjoqfy","falcon","339","stimuli/kitchen_23.jpg"," ","kitchen","C","repeat"," ","35","","","","","",""
"","","","","","image-keyboard-response","46","2.0.0","188182","pkr5zwjoqfy","falcon","null","stimuli/playground_38.jpg","null","playground","D","non-repeat","null","36","stimuli/playground_38.jpg","","","","",""
"","","","","","image-keyboard-response","47","2.0.0","189186","pkr5zwjoqfy","falcon","728","stimuli/gym_21.jpg"," ","gym","E","non-repeat","null","37","stimuli/gym_21.jpg","","","","",""
"","","","","","image-keyboard-response","48","2.0.0","190190","pkr5zwjoqfy","falcon","null","stimuli/bridge_11.jpg","null","bridge","F","non-repeat","null","38","stimuli/bridge_11.jpg","","","","",""
"","","","","","image-keyboard-response","49","2.0.0","191195","pkr5zwjoqfy","falcon","369","stimuli/bridge_11.jpg"," ","bridge","F","repeat"," ","38","","","","","",""
"","","","","","image-keyboard-response","50","2.0.0","192198","pkr5zwjoqfy","falcon","null","stimuli/street_28.jpg","null","street","G","non-repeat","null","39","stimuli/street_28.jpg","","","","",""
"","","","","","image-keyboard-response","51","2.0.0","193203","pkr5zwjoqfy","falcon","null","stimuli/bathroom_50.jpg","null","bathroom","H","non-repeat","null","40","stimuli/bathroom_50.jpg","","","","",""
"","","","","","image-keyboard-response","52","2.0.0","194207","pkr5zwjoqfy","falcon","null","stimuli/bar_58.jpg","null","bar","I","non-repeat","null","41","stimuli/bar_58.jpg","","","","",""
"","","","","","image-keyboard-response","53","2.0.0","195211","pkr5zwjoqfy","falcon","736","stimuli/bar_58.jpg"," ","bar","I","repeat"," ","41","","","","","",""
"","","","","","image-keyboard-response","54","2.0.0","196216","pkr5zwjoqfy","falcon","null","stimuli/desert_51.jpg","null","desert","A","non-repeat","null","42","stimuli/desert_51.jpg","","","","",""
"","","","","","image-keyboard-response","55","2.0.0","197220","pkr5zwjoqfy","falcon","null","stimuli/stream_8.jpg","null","stream","B","non-repeat","null","43","stimuli/stream_8.jpg","","","","",""
"","","","","","image-keyboard-response","56","2.0.0","198225","pkr5zwjoqfy","falcon","null","stimuli/kitchen_23.jpg","null","kitchen","C","non-repeat","null","44","stimuli/kitchen_23.jpg","","","","",""
"","","","","","image-keyboard-response","57","2.0.0","199230","pkr5zwjoqfy","falcon","null","stimuli/playground_38.jpg","null","playground","D","non-repeat","null","45","stimuli/playground_38.jpg","","","","",""
"","","","","","image-keyboard-response","58","2.0.0","200234","pkr5zwjoqfy","falcon","null","stimuli/gym_21.jpg","null","gym","E","non-repeat","null","46","stimuli/gym_21.jpg","","","","",""
"","","","","","image-keyboard-response","59","2.0.0","201238","pkr5zwjoqfy","falcon","null","stimuli/bridge_11.jpg","null","bridge","F","non-repeat","null","47","stimuli/bridge_11.jpg","","","","",""
"","","","","","image-keyboard-response","60","2.0.0","202242","pkr5zwjoqfy","falcon","256","stimuli/desert_51.jpg"," ","desert","A","non-repeat","null","48","stimuli/desert_51.jpg","","","","",""
"","","","","","image-keyboard-response","61","2.0.0","203246","pkr5zwjoqfy","falcon","null","stimuli/stream_8.jpg","null","stream","B","non-repeat","null","49","stimuli/stream_8.jpg","","","","",""
"","","","","","image-keyboard-response","62","2.0.0","204251","pkr5zwjoqfy","falcon","null","stimuli/kitchen_23.jpg","null","kitchen","C","non-repeat","null","50","stimuli/kitchen_23.jpg","","","","",""
"","","","","","image-keyboard-response","63","2.0.0","205256","pkr5zwjoqfy","falcon","null","stimuli/street_28.jpg","null","street","G","non-repeat","null","51","stimuli/street_28.jpg","","","","",""
"","","","","","image-keyboard-response","64","2.0.0","206261","pkr5zwjoqfy","falcon","null","stimuli/bathroom_50.jpg","null","bathroom","H","non-repeat","null","52","stimuli/bathroom_50.jpg","","","","",""
"","","","","","image-keyboard-response","65","2.0.0","207266","pkr5zwjoqfy","falcon","null","stimuli/bar_58.jpg","null","bar","I","non-repeat","null","53","stimuli/bar_58.jpg","","","","",""
"","","","","","image-keyboard-response","66","2.0.0","208271","pkr5zwjoqfy","falcon","null","stimuli/playground_38.jpg","null","playground","D","non-repeat","null","54","stimuli/playground_38.jpg","","","","",""
"","","","","","image-keyboard-response","67","2.0.0","209275","pkr5zwjoqfy","falcon","458","stimuli/playground_38.jpg"," ","playground","D","repeat"," ","54","","","","","",""
"","","","","","image-keyboard-response","68","2.0.0","210279","pkr5zwjoqfy","falcon","null","stimuli/gym_21.jpg","null","gym","E","non-repeat","null","55","stimuli/gym_21.jpg","","","","",""
"","","","","","image-keyboard-response","69","2.0.0","211284","pkr5zwjoqfy","falcon","407","stimuli/bridge_11.jpg"," ","bridge","F","non-repeat","null","56","stimuli/bridge_11.jpg","","","","",""
"","","","","","image-keyboard-response","70","2.0.0","212288","pkr5zwjoqfy","falcon","null","stimuli/desert_51.jpg","null","desert","A","non-repeat","null","57","stimuli/desert_51.jpg","","","","",""
"","","","","","image-keyboard-response","71","2.0.0","213292","pkr5zwjoqfy","falcon","null","stimuli/stream_8.jpg","null","stream","B","non-repeat","null","58","stimuli/stream_8.jpg","","","","",""
"","","","","","image-keyboard-response","72","2.0.0","214297","pkr5zwjoqfy","falcon","null","stimuli/kitchen_23.jpg","null","kitchen","C","non-repeat","null","59","stimuli/kitchen_23.jpg","","","","",""
"","","","","","image-keyboard-response","73","2.0.0","215301","pkr5zwjoqfy","falcon","416","stimuli/kitchen_23.jpg"," ","kitchen","C","repeat"," ","59","","","","","",""
"","","","","","image-keyboard-response","74","2.0.0","216305","pkr5zwjoqfy","falcon","null","stimuli/coast_33.jpg","null","coast","J","non-repeat","null","60","stimuli/coast_33.jpg","","","","",""
"","","","","","image-keyboard-response","75","2.0.0","217309","pkr5zwjoqfy","falcon","null","stimuli/woods_51.jpg","null","woods","K","non-repeat","null","61","stimuli/woods_51.jpg","","","","",""
"","","","","","image-keyboard-response","76","2.0.0","218313","pkr5zwjoqfy","falcon","null","stimuli/field_27.jpg","null","field","L","non-repeat","null","62","stimuli/field_27.jpg","","","","",""
"","","","","","image-keyboard-response","77","2.0.0","219318","pkr5zwjoqfy","falcon","412","stimuli/field_27.jpg"," ","field","L","repeat"," ","62","","","","","",""
"","","","","","image-keyboard-response","78","2.0.0","220322","pkr5zwjoqfy","falcon","839","stimuli/playground_38.jpg"," ","playground","D","non-repeat","null","63","stimuli/playground_38.jpg","","","","",""
"","","","","","image-keyboard-response","79","2.0.0","221326","pkr5zwjoqfy","falcon","null","stimuli/gym_21.jpg","null","gym","E","non-repeat","null","64","stimuli/gym_21.jpg","","","","",""
"","","","","","image-keyboard-response","80","2.0.0","222330","pkr5zwjoqfy","falcon","null","stimuli/bridge_11.jpg","null","bridge","F","non-repeat","null","65","stimuli/bridge_11.jpg","","","","",""
"","","","","","image-keyboard-response","81","2.0.0","223334","pkr5zwjoqfy","falcon","null","stimuli/street_28.jpg","null","street","G","non-repeat","null","66","stimuli/street_28.jpg","","","","",""
"","","","","","image-keyboard-response","82","2.0.0","224339","pkr5zwjoqfy","falcon","377","stimuli/street_28.jpg"," ","street","G","repeat"," ","66","","","","","",""
"","","","","","image-keyboard-response","83","2.0.0","225343","pkr5zwjoqfy","falcon","null","stimuli/bathroom_50.jpg","null","bathroom","H","non-repeat","null","67","stimuli/bathroom_50.jpg","","","","",""
"","","","","","image-keyboard-response","84","2.0.0","226347","pkr5zwjoqfy","falcon","null","stimuli/bar_58.jpg","null","bar","I","non-repeat","null","68","stimuli/bar_58.jpg","","","","",""
"","","","","","image-keyboard-response","85","2.0.0","227352","pkr5zwjoqfy","falcon","null","stimuli/coast_33.jpg","null","coast","J","non-repeat","null","69","stimuli/coast_33.jpg","","","","",""
"","","","","","image-keyboard-response","86","2.0.0","228355","pkr5zwjoqfy","falcon","400","stimuli/woods_51.jpg"," ","woods","K","non-repeat","null","70","stimuli/woods_51.jpg","","","","",""
"","","","","","image-keyboard-response","87","2.0.0","229360","pkr5zwjoqfy","falcon","null","stimuli/field_27.jpg","null","field","L","non-repeat","null","71","stimuli/field_27.jpg","","","","",""
"","","","","","image-keyboard-response","88","2.0.0","230365","pkr5zwjoqfy","falcon","null","stimuli/playground_38.jpg","null","playground","D","non-repeat","null","72","stimuli/playground_38.jpg","","","","",""
"","","","","","image-keyboard-response","89","2.0.0","231370","pkr5zwjoqfy","falcon","425","stimuli/playground_38.jpg"," ","playground","D","repeat"," ","72","","","","","",""
"","","","","","image-keyboard-response","90","2.0.0","232381","pkr5zwjoqfy","falcon","null","stimuli/gym_21.jpg","null","gym","E","non-repeat","null","73","stimuli/gym_21.jpg","","","","",""
"","","","","","image-keyboard-response","91","2.0.0","233386","pkr5zwjoqfy","falcon","null","stimuli/bridge_11.jpg","null","bridge","F","non-repeat","null","74","stimuli/bridge_11.jpg","","","","",""
"","","","","","image-keyboard-response","92","2.0.0","234391","pkr5zwjoqfy","falcon","436","stimuli/bridge_11.jpg"," ","bridge","F","repeat"," ","74","","","","","",""
"","","","","","image-keyboard-response","93","2.0.0","235394","pkr5zwjoqfy","falcon","null","stimuli/coast_33.jpg","null","coast","J","non-repeat","null","75","stimuli/coast_33.jpg","","","","",""
"","","","","","image-keyboard-response","94","2.0.0","236398","pkr5zwjoqfy","falcon","null","stimuli/woods_51.jpg","null","woods","K","non-repeat","null","76","stimuli/woods_51.jpg","","","","",""
"","","","","","image-keyboard-response","95","2.0.0","237402","pkr5zwjoqfy","falcon","null","stimuli/field_27.jpg","null","field","L","non-repeat","null","77","stimuli/field_27.jpg","","","","",""
"","","","","","image-keyboard-response","96","2.0.0","238407","pkr5zwjoqfy","falcon","398","stimuli/playground_38.jpg"," ","playground","D","non-repeat","null","78","stimuli/playground_38.jpg","","","","",""
"","","","","","image-keyboard-response","97","2.0.0","239411","pkr5zwjoqfy","falcon","null","stimuli/gym_21.jpg","null","gym","E","non-repeat","null","79","stimuli/gym_21.jpg","","","","",""
"","","","","","image-keyboard-response","98","2.0.0","240415","pkr5zwjoqfy","falcon","null","stimuli/bridge_11.jpg","null","bridge","F","non-repeat","null","80","stimuli/bridge_11.jpg","","","","",""
"","","","","","image-keyboard-response","99","2.0.0","241420","pkr5zwjoqfy","falcon","null","stimuli/street_28.jpg","null","street","G","non-repeat","null","81","stimuli/street_28.jpg","","","","",""
"","","","","","image-keyboard-response","100","2.0.0","242424","pkr5zwjoqfy","falcon","null","stimuli/bathroom_50.jpg","null","bathroom","H","non-repeat","null","82","stimuli/bathroom_50.jpg","","","","",""
"","","","","","image-keyboard-response","101","2.0.0","243427","pkr5zwjoqfy","falcon","364","stimuli/bar_58.jpg"," ","bar","I","non-repeat","null","83","stimuli/bar_58.jpg","","","","",""
"","","","","","image-keyboard-response","102","2.0.0","244431","pkr5zwjoqfy","falcon","488","stimuli/bar_58.jpg"," ","bar","I","repeat"," ","83","","","","","",""
"","","","","","image-keyboard-response","103","2.0.0","245435","pkr5zwjoqfy","falcon","null","stimuli/playground_38.jpg","null","playground","D","non-repeat","null","84","stimuli/playground_38.jpg","","","","",""
"","","","","","image-keyboard-response","104","2.0.0","246439","pkr5zwjoqfy","falcon","null","stimuli/gym_21.jpg","null","gym","E","non-repeat","null","85","stimuli/gym_21.jpg","","","","",""
"","","","","","image-keyboard-response","105","2.0.0","247444","pkr5zwjoqfy","falcon","null","stimuli/bridge_11.jpg","null","bridge","F","non-repeat","null","86","stimuli/bridge_11.jpg","","","","",""
"","","","","","image-keyboard-response","106","2.0.0","248448","pkr5zwjoqfy","falcon","null","stimuli/coast_33.jpg","null","coast","J","non-repeat","null","87","stimuli/coast_33.jpg","","","","",""
"","","","","","image-keyboard-response","107","2.0.0","249452","pkr5zwjoqfy","falcon","null","stimuli/woods_51.jpg","null","woods","K","non-repeat","null","88","stimuli/woods_51.jpg","","","","",""
"","","","","","image-keyboard-response","108","2.0.0","250456","pkr5zwjoqfy","falcon","null","stimuli/field_27.jpg","null","field","L","non-repeat","null","89","stimuli/field_27.jpg","","","","",""
"","","","","","image-keyboard-response","109","2.0.0","251461","pkr5zwjoqfy","falcon","null","stimuli/playground_38.jpg","null","playground","D","non-repeat","null","90","stimuli/playground_38.jpg","","","","",""
"","","","","","image-keyboard-response","110","2.0.0","252465","pkr5zwjoqfy","falcon","null","stimuli/gym_21.jpg","null","gym","E","non-repeat","null","91","stimuli/gym_21.jpg","","","","",""
"","","","","","image-keyboard-response","111","2.0.0","253469","pkr5zwjoqfy","falcon","null","stimuli/bridge_11.jpg","null","bridge","F","non-repeat","null","92","stimuli/bridge_11.jpg","","","","",""
"","","","","","image-keyboard-response","112","2.0.0","254474","pkr5zwjoqfy","falcon","null","stimuli/desert_51.jpg","null","desert","A","non-repeat","null","93","stimuli/desert_51.jpg","","","","",""
"","","","","","image-keyboard-response","113","2.0.0","255478","pkr5zwjoqfy","falcon","502","stimuli/desert_51.jpg"," ","desert","A","repeat"," ","93","","","","","",""
"","","","","","image-keyboard-response","114","2.0.0","256482","pkr5zwjoqfy","falcon","null","stimuli/stream_8.jpg","null","stream","B","non-repeat","null","94","stimuli/stream_8.jpg","","","","",""
"","","","","","image-keyboard-response","115","2.0.0","257486","pkr5zwjoqfy","falcon","null","stimuli/kitchen_23.jpg","null","kitchen","C","non-repeat","null","95","stimuli/kitchen_23.jpg","","","","",""
"","","","","","image-keyboard-response","116","2.0.0","258489","pkr5zwjoqfy","falcon","null","stimuli/coast_33.jpg","null","coast","J","non-repeat","null","96","stimuli/coast_33.jpg","","","","",""
"","","","","","image-keyboard-response","117","2.0.0","259493","pkr5zwjoqfy","falcon","null","stimuli/woods_51.jpg","null","woods","K","non-repeat","null","97","stimuli/woods_51.jpg","","","","",""
"","","","","","image-keyboard-response","118","2.0.0","260498","pkr5zwjoqfy","falcon","null","stimuli/field_27.jpg","null","field","L","non-repeat","null","98","stimuli/field_27.jpg","","","","",""
"","","","","","image-keyboard-response","119","2.0.0","261502","pkr5zwjoqfy","falcon","null","stimuli/desert_51.jpg","null","desert","A","non-repeat","null","99","stimuli/desert_51.jpg","","","","",""
"","","","","","image-keyboard-response","120","2.0.0","262507","pkr5zwjoqfy","falcon","null","stimuli/stream_8.jpg","null","stream","B","non-repeat","null","100","stimuli/stream_8.jpg","","","","",""
"","","","","","image-keyboard-response","121","2.0.0","263511","pkr5zwjoqfy","falcon","null","stimuli/kitchen_23.jpg","null","kitchen","C","non-repeat","null","101","stimuli/kitchen_23.jpg","","","","",""
"","","","","","image-keyboard-response","122","2.0.0","264515","pkr5zwjoqfy","falcon","463","stimuli/kitchen_23.jpg"," ","kitchen","C","repeat"," ","101","","","","","",""
"","","","","","image-keyboard-response","123","2.0.0","265519","pkr5zwjoqfy","falcon","null","stimuli/street_28.jpg","null","street","G","non-repeat","null","102","stimuli/street_28.jpg","","","","",""
"","","","","","image-keyboard-response","124","2.0.0","266522","pkr5zwjoqfy","falcon","null","stimuli/bathroom_50.jpg","null","bathroom","H","non-repeat","null","103","stimuli/bathroom_50.jpg","","","","",""
"","","","","","image-keyboard-response","125","2.0.0","267526","pkr5zwjoqfy","falcon","null","stimuli/bar_58.jpg","null","bar","I","non-repeat","null","104","stimuli/bar_58.jpg","","","","",""
"","","","","","image-keyboard-response","126","2.0.0","268530","pkr5zwjoqfy","falcon","null","stimuli/coast_33.jpg","null","coast","J","non-repeat","null","105","stimuli/coast_33.jpg","","","","",""
"","","","","","image-keyboard-response","127","2.0.0","269534","pkr5zwjoqfy","falcon","575","stimuli/coast_33.jpg"," ","coast","J","repeat"," ","105","","","","","",""
"","","","","","image-keyboard-response","128","2.0.0","270539","pkr5zwjoqfy","falcon","null","stimuli/woods_51.jpg","null","woods","K","non-repeat","null","106","stimuli/woods_51.jpg","","","","",""
"","","","","","image-keyboard-response","129","2.0.0","271543","pkr5zwjoqfy","falcon","null","stimuli/field_27.jpg","null","field","L","non-repeat","null","107","stimuli/field_27.jpg","","","","",""
"","","","","","image-keyboard-response","130","2.0.0","272548","pkr5zwjoqfy","falcon","375","stimuli/playground_38.jpg"," ","playground","D","non-repeat","null","108","stimuli/playground_38.jpg","","","","",""
"","","","","","image-keyboard-response","131","2.0.0","273552","pkr5zwjoqfy","falcon","null","stimuli/gym_21.jpg","null","gym","E","non-repeat","null","109","stimuli/gym_21.jpg","","","","",""
"","","","","","image-keyboard-response","132","2.0.0","274556","pkr5zwjoqfy","falcon","null","stimuli/bridge_11.jpg","null","bridge","F","non-repeat","null","110","stimuli/bridge_11.jpg","","","","",""
"","","","","","image-keyboard-response","133","2.0.0","275559","pkr5zwjoqfy","falcon","null","stimuli/coast_33.jpg","null","coast","J","non-repeat","null","111","stimuli/coast_33.jpg","","","","",""
"","","","","","image-keyboard-response","134","2.0.0","276563","pkr5zwjoqfy","falcon","null","stimuli/woods_51.jpg","null","woods","K","non-repeat","null","112","stimuli/woods_51.jpg","","","","",""
"","","","","","image-keyboard-response","135","2.0.0","277568","pkr5zwjoqfy","falcon","419","stimuli/field_27.jpg"," ","field","L","non-repeat","null","113","stimuli/field_27.jpg","","","","",""
"","","","","","image-keyboard-response","136","2.0.0","278572","pkr5zwjoqfy","falcon","null","stimuli/street_28.jpg","null","street","G","non-repeat","null","114","stimuli/street_28.jpg","","","","",""
"","","","","","image-keyboard-response","137","2.0.0","279577","pkr5zwjoqfy","falcon","null","stimuli/bathroom_50.jpg","null","bathroom","H","non-repeat","null","115","stimuli/bathroom_50.jpg","","","","",""
"","","","","","image-keyboard-response","138","2.0.0","280580","pkr5zwjoqfy","falcon","null","stimuli/bar_58.jpg","null","bar","I","non-repeat","null","116","stimuli/bar_58.jpg","","","","",""
"","","","","","image-keyboard-response","139","2.0.0","281585","pkr5zwjoqfy","falcon","497","stimuli/bar_58.jpg"," ","bar","I","repeat"," ","116","","","","","",""
"","","","","","image-keyboard-response","140","2.0.0","282589","pkr5zwjoqfy","falcon","null","stimuli/coast_33.jpg","null","coast","J","non-repeat","null","117","stimuli/coast_33.jpg","","","","",""
"","","","","","image-keyboard-response","141","2.0.0","283593","pkr5zwjoqfy","falcon","null","stimuli/woods_51.jpg","null","woods","K","non-repeat","null","118","stimuli/woods_51.jpg","","","","",""
"","","","","","image-keyboard-response","142","2.0.0","284597","pkr5zwjoqfy","falcon","null","stimuli/field_27.jpg","null","field","L","non-repeat","null","119","stimuli/field_27.jpg","","","","",""
"","","","","","image-keyboard-response","143","2.0.0","285602","pkr5zwjoqfy","falcon","null","stimuli/desert_51.jpg","null","desert","A","non-repeat","null","120","stimuli/desert_51.jpg","","","","",""
"","","","","","image-keyboard-response","144","2.0.0","286605","pkr5zwjoqfy","falcon","null","stimuli/stream_8.jpg","null","stream","B","non-repeat","null","121","stimuli/stream_8.jpg","","","","",""
"","","","","","image-keyboard-response","145","2.0.0","287610","pkr5zwjoqfy","falcon","null","stimuli/kitchen_23.jpg","null","kitchen","C","non-repeat","null","122","stimuli/kitchen_23.jpg","","","","",""
"","","","","","image-keyboard-response","146","2.0.0","288614","pkr5zwjoqfy","falcon","null","stimuli/playground_38.jpg","null","playground","D","non-repeat","null","123","stimuli/playground_38.jpg","","","","",""
"","","","","","image-keyboard-response","147","2.0.0","289618","pkr5zwjoqfy","falcon","null","stimuli/gym_21.jpg","null","gym","E","non-repeat","null","124","stimuli/gym_21.jpg","","","","",""
"","","","","","image-keyboard-response","148","2.0.0","290623","pkr5zwjoqfy","falcon","null","stimuli/bridge_11.jpg","null","bridge","F","non-repeat","null","125","stimuli/bridge_11.jpg","","","","",""
"","","","","","image-keyboard-response","149","2.0.0","291626","pkr5zwjoqfy","falcon","499","stimuli/bridge_11.jpg"," ","bridge","F","repeat"," ","125","","","","","",""
"","","","","","image-keyboard-response","150","2.0.0","292630","pkr5zwjoqfy","falcon","null","stimuli/street_28.jpg","null","street","G","non-repeat","null","126","stimuli/street_28.jpg","","","","",""
"","","","","","image-keyboard-response","151","2.0.0","293634","pkr5zwjoqfy","falcon","null","stimuli/bathroom_50.jpg","null","bathroom","H","non-repeat","null","127","stimuli/bathroom_50.jpg","","","","",""
"","","","","","image-keyboard-response","152","2.0.0","294639","pkr5zwjoqfy","falcon","null","stimuli/bar_58.jpg","null","bar","I","non-repeat","null","128","stimuli/bar_58.jpg","","","","",""
"","","","","","image-keyboard-response","153","2.0.0","295643","pkr5zwjoqfy","falcon","null","stimuli/coast_33.jpg","null","coast","J","non-repeat","null","129","stimuli/coast_33.jpg","","","","",""
"","","","","","image-keyboard-response","154","2.0.0","296646","pkr5zwjoqfy","falcon","null","stimuli/woods_51.jpg","null","woods","K","non-repeat","null","130","stimuli/woods_51.jpg","","","","",""
"","","","","","image-keyboard-response","155","2.0.0","297651","pkr5zwjoqfy","falcon","null","stimuli/field_27.jpg","null","field","L","non-repeat","null","131","stimuli/field_27.jpg","","","","",""
"","","","","","image-keyboard-response","156","2.0.0","298655","pkr5zwjoqfy","falcon","583","stimuli/field_27.jpg"," ","field","L","repeat"," ","131","","","","","",""
"","","","","","image-keyboard-response","157","2.0.0","299659","pkr5zwjoqfy","falcon","null","stimuli/street_28.jpg","null","street","G","non-repeat","null","132","stimuli/street_28.jpg","","","","",""
"","","","","","image-keyboard-response","158","2.0.0","300663","pkr5zwjoqfy","falcon","null","stimuli/bathroom_50.jpg","null","bathroom","H","non-repeat","null","133","stimuli/bathroom_50.jpg","","","","",""
"","","","","","image-keyboard-response","159","2.0.0","301667","pkr5zwjoqfy","falcon","null","stimuli/bar_58.jpg","null","bar","I","non-repeat","null","134","stimuli/bar_58.jpg","","","","",""
"","","","","","image-keyboard-response","160","2.0.0","302671","pkr5zwjoqfy","falcon","null","stimuli/coast_33.jpg","null","coast","J","non-repeat","null","135","stimuli/coast_33.jpg","","","","",""
"","","","","","image-keyboard-response","161","2.0.0","303676","pkr5zwjoqfy","falcon","null","stimuli/woods_51.jpg","null","woods","K","non-repeat","null","136","stimuli/woods_51.jpg","","","","",""
"","","","","","image-keyboard-response","162","2.0.0","304680","pkr5zwjoqfy","falcon","null","stimuli/field_27.jpg","null","field","L","non-repeat","null","137","stimuli/field_27.jpg","","","","",""
"","","","","","image-keyboard-response","163","2.0.0","305685","pkr5zwjoqfy","falcon","629","stimuli/field_27.jpg"," ","field","L","repeat"," ","137","","","","","",""
"","","","","","image-keyboard-response","164","2.0.0","306689","pkr5zwjoqfy","falcon","null","stimuli/desert_51.jpg","null","desert","A","non-repeat","null","138","stimuli/desert_51.jpg","","","","",""
"","","","","","image-keyboard-response","165","2.0.0","307692","pkr5zwjoqfy","falcon","664","stimuli/desert_51.jpg"," ","desert","A","repeat"," ","138","","","","","",""
"","","","","","image-keyboard-response","166","2.0.0","308696","pkr5zwjoqfy","falcon","null","stimuli/stream_8.jpg","null","stream","B","non-repeat","null","139","stimuli/stream_8.jpg","","","","",""
"","","","","","image-keyboard-response","167","2.0.0","309700","pkr5zwjoqfy","falcon","null","stimuli/kitchen_23.jpg","null","kitchen","C","non-repeat","null","140","stimuli/kitchen_23.jpg","","","","",""
"","","","","","image-keyboard-response","168","2.0.0","310704","pkr5zwjoqfy","falcon","null","stimuli/playground_38.jpg","null","playground","D","non-repeat","null","141","stimuli/playground_38.jpg","","","","",""
"","","","","","image-keyboard-response","169","2.0.0","311709","pkr5zwjoqfy","falcon","null","stimuli/gym_21.jpg","null","gym","E","non-repeat","null","142","stimuli/gym_21.jpg","","","","",""
"","","","","","image-keyboard-response","170","2.0.0","312713","pkr5zwjoqfy","falcon","null","stimuli/bridge_11.jpg","null","bridge","F","non-repeat","null","143","stimuli/bridge_11.jpg","","","","",""
"","","","","","image-keyboard-response","171","2.0.0","313717","pkr5zwjoqfy","falcon","310","stimuli/coast_33.jpg"," ","coast","J","non-repeat","null","144","stimuli/coast_33.jpg","","","","",""
"","","","","","image-keyboard-response","172","2.0.0","314722","pkr5zwjoqfy","falcon","350","stimuli/woods_51.jpg"," ","woods","K","non-repeat","null","145","stimuli/woods_51.jpg","","","","",""
"","","","","","image-keyboard-response","173","2.0.0","315725","pkr5zwjoqfy","falcon","null","stimuli/field_27.jpg","null","field","L","non-repeat","null","146","stimuli/field_27.jpg","","","","",""
"","","","","","image-keyboard-response","174","2.0.0","316730","pkr5zwjoqfy","falcon","null","stimuli/street_28.jpg","null","street","G","non-repeat","null","147","stimuli/street_28.jpg","","","","",""
"","","","","","image-keyboard-response","175","2.0.0","317734","pkr5zwjoqfy","falcon","null","stimuli/bathroom_50.jpg","null","bathroom","H","non-repeat","null","148","stimuli/bathroom_50.jpg","","","","",""
"","","","","","image-keyboard-response","176","2.0.0","318746","pkr5zwjoqfy","falcon","null","stimuli/bar_58.jpg","null","bar","I","non-repeat","null","149","stimuli/bar_58.jpg","","","","",""
"","","","","","image-keyboard-response","177","2.0.0","319751","pkr5zwjoqfy","falcon","null","stimuli/playground_38.jpg","null","playground","D","non-repeat","null","150","stimuli/playground_38.jpg","","","","",""
"","","","","","image-keyboard-response","178","2.0.0","320755","pkr5zwjoqfy","falcon","null","stimuli/gym_21.jpg","null","gym","E","non-repeat","null","151","stimuli/gym_21.jpg","","","","",""
"","","","","","image-keyboard-response","179","2.0.0","321759","pkr5zwjoqfy","falcon","null","stimuli/bridge_11.jpg","null","bridge","F","non-repeat","null","152","stimuli/bridge_11.jpg","","","","",""
"","","","","","image-keyboard-response","180","2.0.0","322764","pkr5zwjoqfy","falcon","437","stimuli/coast_33.jpg"," ","coast","J","non-repeat","null","153","stimuli/coast_33.jpg","","","","",""
"","","","","","image-keyboard-response","181","2.0.0","323768","pkr5zwjoqfy","falcon","null","stimuli/woods_51.jpg","null","woods","K","non-repeat","null","154","stimuli/woods_51.jpg","","","","",""
"","","","","","image-keyboard-response","182","2.0.0","324772","pkr5zwjoqfy","falcon","null","stimuli/field_27.jpg","null","field","L","non-repeat","null","155","stimuli/field_27.jpg","","","","",""
"","","","","","image-keyboard-response","183","2.0.0","325776","pkr5zwjoqfy","falcon","null","stimuli/playground_38.jpg","null","playground","D","non-repeat","null","156","stimuli/playground_38.jpg","","","","",""
"","","","","","image-keyboard-response","184","2.0.0","326780","pkr5zwjoqfy","falcon","null","stimuli/gym_21.jpg","null","gym","E","non-repeat","null","157","stimuli/gym_21.jpg","","","","",""
"","","","","","image-keyboard-response","185","2.0.0","327785","pkr5zwjoqfy","falcon","null","stimuli/bridge_11.jpg","null","bridge","F","non-repeat","null","158","stimuli/bridge_11.jpg","","","","",""
"","","","","","image-keyboard-response","186","2.0.0","328790","pkr5zwjoqfy","falcon","null","stimuli/coast_33.jpg","null","coast","J","non-repeat","null","159","stimuli/coast_33.jpg","","","","",""
"","","","","","image-keyboard-response","187","2.0.0","329794","pkr5zwjoqfy","falcon","null","stimuli/woods_51.jpg","null","woods","K","non-repeat","null","160","stimuli/woods_51.jpg","","","","",""
"","","","","","image-keyboard-response","188","2.0.0","330799","pkr5zwjoqfy","falcon","null","stimuli/field_27.jpg","null","field","L","non-repeat","null","161","stimuli/field_27.jpg","","","","",""
"","","","","","image-keyboard-response","189","2.0.0","331803","pkr5zwjoqfy","falcon","null","stimuli/street_28.jpg","null","street","G","non-repeat","null","162","stimuli/street_28.jpg","","","","",""
"","","","","","image-keyboard-response","190","2.0.0","332807","pkr5zwjoqfy","falcon","null","stimuli/bathroom_50.jpg","null","bathroom","H","non-repeat","null","163","stimuli/bathroom_50.jpg","","","","",""
"","","","","","image-keyboard-response","191","2.0.0","333811","pkr5zwjoqfy","falcon","647","stimuli/bar_58.jpg"," ","bar","I","non-repeat","null","164","stimuli/bar_58.jpg","","","","",""
"","","","","","image-keyboard-response","192","2.0.0","334815","pkr5zwjoqfy","falcon","null","stimuli/coast_33.jpg","null","coast","J","non-repeat","null","165","stimuli/coast_33.jpg","","","","",""
"","","","","","image-keyboard-response","193","2.0.0","335820","pkr5zwjoqfy","falcon","452","stimuli/coast_33.jpg"," ","coast","J","repeat"," ","165","","","","","",""
"","","","","","image-keyboard-response","194","2.0.0","336824","pkr5zwjoqfy","falcon","null","stimuli/woods_51.jpg","null","woods","K","non-repeat","null","166","stimuli/woods_51.jpg","","","","",""
"","","","","","image-keyboard-response","195","2.0.0","337828","pkr5zwjoqfy","falcon","null","stimuli/field_27.jpg","null","field","L","non-repeat","null","167","stimuli/field_27.jpg","","","","",""
"","","","","","image-keyboard-response","196","2.0.0","338832","pkr5zwjoqfy","falcon","null","stimuli/street_28.jpg","null","street","G","non-repeat","null","168","stimuli/street_28.jpg","","","","",""
"","","","","","image-keyboard-response","197","2.0.0","339837","pkr5zwjoqfy","falcon","null","stimuli/bathroom_50.jpg","null","bathroom","H","non-repeat","null","169","stimuli/bathroom_50.jpg","","","","",""
"","","","","","image-keyboard-response","198","2.0.0","340841","pkr5zwjoqfy","falcon","null","stimuli/bar_58.jpg","null","bar","I","non-repeat","null","170","stimuli/bar_58.jpg","","","","",""
"","","","","","image-keyboard-response","199","2.0.0","341845","pkr5zwjoqfy","falcon","null","stimuli/coast_33.jpg","null","coast","J","non-repeat","null","171","stimuli/coast_33.jpg","","","","",""
"","","","","","image-keyboard-response","200","2.0.0","342849","pkr5zwjoqfy","falcon","null","stimuli/woods_51.jpg","null","woods","K","non-repeat","null","172","stimuli/woods_51.jpg","","","","",""
"","","","","","image-keyboard-response","201","2.0.0","343854","pkr5zwjoqfy","falcon","null","stimuli/field_27.jpg","null","field","L","non-repeat","null","173","stimuli/field_27.jpg","","","","",""
"","","","","","image-keyboard-response","202","2.0.0","344859","pkr5zwjoqfy","falcon","null","stimuli/playground_38.jpg","null","playground","D","non-repeat","null","174","stimuli/playground_38.jpg","","","","",""
"","","","","","image-keyboard-response","203","2.0.0","345863","pkr5zwjoqfy","falcon","null","stimuli/gym_21.jpg","null","gym","E","non-repeat","null","175","stimuli/gym_21.jpg","","","","",""
"","","","","","image-keyboard-response","204","2.0.0","346868","pkr5zwjoqfy","falcon","null","stimuli/bridge_11.jpg","null","bridge","F","non-repeat","null","176","stimuli/bridge_11.jpg","","","","",""
"","","","","","image-keyboard-response","205","2.0.0","347872","pkr5zwjoqfy","falcon","null","stimuli/desert_51.jpg","null","desert","A","non-repeat","null","177","stimuli/desert_51.jpg","","","","",""
"","","","","","image-keyboard-response","206","2.0.0","348876","pkr5zwjoqfy","falcon","null","stimuli/stream_8.jpg","null","stream","B","non-repeat","null","178","stimuli/stream_8.jpg","","","","",""
"","","","","","image-keyboard-response","207","2.0.0","349880","pkr5zwjoqfy","falcon","null","stimuli/kitchen_23.jpg","null","kitchen","C","non-repeat","null","179","stimuli/kitchen_23.jpg","","","","",""
"","","","","","image-keyboard-response","208","2.0.0","350884","pkr5zwjoqfy","falcon","null","stimuli/coast_33.jpg","null","coast","J","non-repeat","null","180","stimuli/coast_33.jpg","","","","",""
"","","","","","image-keyboard-response","209","2.0.0","351888","pkr5zwjoqfy","falcon","539","stimuli/coast_33.jpg"," ","coast","J","repeat"," ","180","","","","","",""
"","","","","","image-keyboard-response","210","2.0.0","352892","pkr5zwjoqfy","falcon","null","stimuli/woods_51.jpg","null","woods","K","non-repeat","null","181","stimuli/woods_51.jpg","","","","",""
"","","","","","image-keyboard-response","211","2.0.0","353896","pkr5zwjoqfy","falcon","null","stimuli/field_27.jpg","null","field","L","non-repeat","null","182","stimuli/field_27.jpg","","","","",""
"","","","","","image-keyboard-response","212","2.0.0","354900","pkr5zwjoqfy","falcon","null","stimuli/playground_38.jpg","null","playground","D","non-repeat","null","183","stimuli/playground_38.jpg","","","","",""
"","","","","","image-keyboard-response","213","2.0.0","355905","pkr5zwjoqfy","falcon","null","stimuli/gym_21.jpg","null","gym","E","non-repeat","null","184","stimuli/gym_21.jpg","","","","",""
"","","","","","image-keyboard-response","214","2.0.0","356909","pkr5zwjoqfy","falcon","null","stimuli/bridge_11.jpg","null","bridge","F","non-repeat","null","185","stimuli/bridge_11.jpg","","","","",""
"","","","","","image-keyboard-response","215","2.0.0","357914","pkr5zwjoqfy","falcon","null","stimuli/street_28.jpg","null","street","G","non-repeat","null","186","stimuli/street_28.jpg","","","","",""
"","","","","","image-keyboard-response","216","2.0.0","358918","pkr5zwjoqfy","falcon","null","stimuli/bathroom_50.jpg","null","bathroom","H","non-repeat","null","187","stimuli/bathroom_50.jpg","","","","",""
"","","","","","image-keyboard-response","217","2.0.0","359922","pkr5zwjoqfy","falcon","null","stimuli/bar_58.jpg","null","bar","I","non-repeat","null","188","stimuli/bar_58.jpg","","","","",""
"","","","","","image-keyboard-response","218","2.0.0","360926","pkr5zwjoqfy","falcon","400","stimuli/bar_58.jpg"," ","bar","I","repeat"," ","188","","","","","",""
"","","","","","image-keyboard-response","219","2.0.0","361930","pkr5zwjoqfy","falcon","null","stimuli/coast_33.jpg","null","coast","J","non-repeat","null","189","stimuli/coast_33.jpg","","","","",""
"","","","","","image-keyboard-response","220","2.0.0","362935","pkr5zwjoqfy","falcon","null","stimuli/coast_33.jpg","null","coast","J","repeat"," ","189","","","","","",""
"","","","","","image-keyboard-response","221","2.0.0","363939","pkr5zwjoqfy","falcon","441","stimuli/woods_51.jpg"," ","woods","K","non-repeat","null","190","stimuli/woods_51.jpg","","","","",""
"","","","","","image-keyboard-response","222","2.0.0","364943","pkr5zwjoqfy","falcon","null","stimuli/field_27.jpg","null","field","L","non-repeat","null","191","stimuli/field_27.jpg","","","","",""
"","","","","","image-keyboard-response","223","2.0.0","365948","pkr5zwjoqfy","falcon","null","stimuli/playground_38.jpg","null","playground","D","non-repeat","null","192","stimuli/playground_38.jpg","","","","",""
"","","","","","image-keyboard-response","224","2.0.0","366953","pkr5zwjoqfy","falcon","397","stimuli/playground_38.jpg"," ","playground","D","repeat"," ","192","","","","","",""
"","","","","","image-keyboard-response","225","2.0.0","367957","pkr5zwjoqfy","falcon","null","stimuli/gym_21.jpg","null","gym","E","non-repeat","null","193","stimuli/gym_21.jpg","","","","",""
"","","","","","image-keyboard-response","226","2.0.0","368962","pkr5zwjoqfy","falcon","null","stimuli/bridge_11.jpg","null","bridge","F","non-repeat","null","194","stimuli/bridge_11.jpg","","","","",""
"","","","","","image-keyboard-response","227","2.0.0","369966","pkr5zwjoqfy","falcon","null","stimuli/coast_33.jpg","null","coast","J","non-repeat","null","195","stimuli/coast_33.jpg","","","","",""
"","","","","","image-keyboard-response","228","2.0.0","370970","pkr5zwjoqfy","falcon","null","stimuli/woods_51.jpg","null","woods","K","non-repeat","null","196","stimuli/woods_51.jpg","","","","",""
"","","","","","image-keyboard-response","229","2.0.0","371974","pkr5zwjoqfy","falcon","null","stimuli/field_27.jpg","null","field","L","non-repeat","null","197","stimuli/field_27.jpg","","","","",""
"","","","","","image-keyboard-response","230","2.0.0","372978","pkr5zwjoqfy","falcon","null","stimuli/playground_38.jpg","null","playground","D","non-repeat","null","198","stimuli/playground_38.jpg","","","","",""
"","","","","","image-keyboard-response","231","2.0.0","373981","pkr5zwjoqfy","falcon","null","stimuli/gym_21.jpg","null","gym","E","non-repeat","null","199","stimuli/gym_21.jpg","","","","",""
"","","","","","image-keyboard-response","232","2.0.0","374985","pkr5zwjoqfy","falcon","null","stimuli/bridge_11.jpg","null","bridge","F","non-repeat","null","200","stimuli/bridge_11.jpg","","","","",""
"","","","","","image-keyboard-response","233","2.0.0","375988","pkr5zwjoqfy","falcon","null","stimuli/street_28.jpg","null","street","G","non-repeat","null","201","stimuli/street_28.jpg","","","","",""
"","","","","","image-keyboard-response","234","2.0.0","376992","pkr5zwjoqfy","falcon","null","stimuli/bathroom_50.jpg","null","bathroom","H","non-repeat","null","202","stimuli/bathroom_50.jpg","","","","",""
"","","","","","image-keyboard-response","235","2.0.0","377995","pkr5zwjoqfy","falcon","517","stimuli/bar_58.jpg"," ","bar","I","non-repeat","null","203","stimuli/bar_58.jpg","","","","",""
"","","","","","image-keyboard-response","236","2.0.0","379000","pkr5zwjoqfy","falcon","626","stimuli/bar_58.jpg"," ","bar","I","repeat"," ","203","","","","","",""
"","","","","","image-keyboard-response","237","2.0.0","380004","pkr5zwjoqfy","falcon","null","stimuli/desert_51.jpg","null","desert","A","non-repeat","null","204","stimuli/desert_51.jpg","","","","",""
"","","","","","image-keyboard-response","238","2.0.0","381009","pkr5zwjoqfy","falcon","321","stimuli/desert_51.jpg"," ","desert","A","repeat"," ","204","","","","","",""
"","","","","","image-keyboard-response","239","2.0.0","382013","pkr5zwjoqfy","falcon","null","stimuli/stream_8.jpg","null","stream","B","non-repeat","null","205","stimuli/stream_8.jpg","","","","",""
"","","","","","image-keyboard-response","240","2.0.0","383017","pkr5zwjoqfy","falcon","null","stimuli/kitchen_23.jpg","null","kitchen","C","non-repeat","null","206","stimuli/kitchen_23.jpg","","","","",""
"","","","","","image-keyboard-response","241","2.0.0","384021","pkr5zwjoqfy","falcon","null","stimuli/coast_33.jpg","null","coast","J","non-repeat","null","207","stimuli/coast_33.jpg","","","","",""
"","","","","","image-keyboard-response","242","2.0.0","385026","pkr5zwjoqfy","falcon","null","stimuli/woods_51.jpg","null","woods","K","non-repeat","null","208","stimuli/woods_51.jpg","","","","",""
"","","","","","image-keyboard-response","243","2.0.0","386029","pkr5zwjoqfy","falcon","null","stimuli/field_27.jpg","null","field","L","non-repeat","null","209","stimuli/field_27.jpg","","","","",""
"","","","","","image-keyboard-response","244","2.0.0","387034","pkr5zwjoqfy","falcon","null","stimuli/desert_51.jpg","null","desert","A","non-repeat","null","210","stimuli/desert_51.jpg","","","","",""
"","","","","","image-keyboard-response","245","2.0.0","388038","pkr5zwjoqfy","falcon","null","stimuli/stream_8.jpg","null","stream","B","non-repeat","null","211","stimuli/stream_8.jpg","","","","",""
"","","","","","image-keyboard-response","246","2.0.0","389043","pkr5zwjoqfy","falcon","null","stimuli/kitchen_23.jpg","null","kitchen","C","non-repeat","null","212","stimuli/kitchen_23.jpg","","","","",""
"","","","","","image-keyboard-response","247","2.0.0","390047","pkr5zwjoqfy","falcon","null","stimuli/street_28.jpg","null","street","G","non-repeat","null","213","stimuli/street_28.jpg","","","","",""
"","","","","","image-keyboard-response","248","2.0.0","391051","pkr5zwjoqfy","falcon","null","stimuli/bathroom_50.jpg","null","bathroom","H","non-repeat","null","214","stimuli/bathroom_50.jpg","","","","",""
"","","","","","image-keyboard-response","249","2.0.0","392054","pkr5zwjoqfy","falcon","null","stimuli/bar_58.jpg","null","bar","I","non-repeat","null","215","stimuli/bar_58.jpg","","","","",""
"","","","","","image-keyboard-response","250","2.0.0","393059","pkr5zwjoqfy","falcon","null","stimuli/desert_51.jpg","null","desert","A","non-repeat","null","216","stimuli/desert_51.jpg","","","","",""
"","","","","","image-keyboard-response","251","2.0.0","394063","pkr5zwjoqfy","falcon","null","stimuli/stream_8.jpg","null","stream","B","non-repeat","null","217","stimuli/stream_8.jpg","","","","",""
"","","","","","image-keyboard-response","252","2.0.0","395068","pkr5zwjoqfy","falcon","null","stimuli/kitchen_23.jpg","null","kitchen","C","non-repeat","null","218","stimuli/kitchen_23.jpg","","","","",""
"","","","","","image-keyboard-response","253","2.0.0","396071","pkr5zwjoqfy","falcon","null","stimuli/street_28.jpg","null","street","G","non-repeat","null","219","stimuli/street_28.jpg","","","","",""
"","","","","","image-keyboard-response","254","2.0.0","397076","pkr5zwjoqfy","falcon","null","stimuli/bathroom_50.jpg","null","bathroom","H","non-repeat","null","220","stimuli/bathroom_50.jpg","","","","",""
"","","","","","image-keyboard-response","255","2.0.0","398080","pkr5zwjoqfy","falcon","null","stimuli/bar_58.jpg","null","bar","I","non-repeat","null","221","stimuli/bar_58.jpg","","","","",""
"","","","","","image-keyboard-response","256","2.0.0","399084","pkr5zwjoqfy","falcon","null","stimuli/coast_33.jpg","null","coast","J","non-repeat","null","222","stimuli/coast_33.jpg","","","","",""
"","","","","","image-keyboard-response","257","2.0.0","400088","pkr5zwjoqfy","falcon","null","stimuli/woods_51.jpg","null","woods","K","non-repeat","null","223","stimuli/woods_51.jpg","","","","",""
"","","","","","image-keyboard-response","258","2.0.0","401093","pkr5zwjoqfy","falcon","null","stimuli/field_27.jpg","null","field","L","non-repeat","null","224","stimuli/field_27.jpg","","","","",""
"","","","","","image-keyboard-response","259","2.0.0","402097","pkr5zwjoqfy","falcon","null","stimuli/street_28.jpg","null","street","G","non-repeat","null","225","stimuli/street_28.jpg","","","","",""
"","","","","","image-keyboard-response","260","2.0.0","403101","pkr5zwjoqfy","falcon","378","stimuli/street_28.jpg"," ","street","G","repeat"," ","225","","","","","",""
"","","","","","image-keyboard-response","261","2.0.0","404105","pkr5zwjoqfy","falcon","null","stimuli/bathroom_50.jpg","null","bathroom","H","non-repeat","null","226","stimuli/bathroom_50.jpg","","","","",""
"","","","","","image-keyboard-response","262","2.0.0","405117","pkr5zwjoqfy","falcon","null","stimuli/bar_58.jpg","null","bar","I","non-repeat","null","227","stimuli/bar_58.jpg","","","","",""
"","","","","","image-keyboard-response","263","2.0.0","406122","pkr5zwjoqfy","falcon","null","stimuli/desert_51.jpg","null","desert","A","non-repeat","null","228","stimuli/desert_51.jpg","","","","",""
"","","","","","image-keyboard-response","264","2.0.0","407126","pkr5zwjoqfy","falcon","null","stimuli/stream_8.jpg","null","stream","B","non-repeat","null","229","stimuli/stream_8.jpg","","","","",""
"","","","","","image-keyboard-response","265","2.0.0","408130","pkr5zwjoqfy","falcon","null","stimuli/kitchen_23.jpg","null","kitchen","C","non-repeat","null","230","stimuli/kitchen_23.jpg","","","","",""
"","","","","","image-keyboard-response","266","2.0.0","409135","pkr5zwjoqfy","falcon","null","stimuli/street_28.jpg","null","street","G","non-repeat","null","231","stimuli/street_28.jpg","","","","",""
"","","","","","image-keyboard-response","267","2.0.0","410139","pkr5zwjoqfy","falcon","null","stimuli/bathroom_50.jpg","null","bathroom","H","non-repeat","null","232","stimuli/bathroom_50.jpg","","","","",""
"","","","","","image-keyboard-response","268","2.0.0","411144","pkr5zwjoqfy","falcon","null","stimuli/bar_58.jpg","null","bar","I","non-repeat","null","233","stimuli/bar_58.jpg","","","","",""
"","","","","","image-keyboard-response","269","2.0.0","412148","pkr5zwjoqfy","falcon","null","stimuli/desert_51.jpg","null","desert","A","non-repeat","null","234","stimuli/desert_51.jpg","","","","",""
"","","","","","image-keyboard-response","270","2.0.0","413152","pkr5zwjoqfy","falcon","null","stimuli/stream_8.jpg","null","stream","B","non-repeat","null","235","stimuli/stream_8.jpg","","","","",""
"","","","","","image-keyboard-response","271","2.0.0","414156","pkr5zwjoqfy","falcon","null","stimuli/kitchen_23.jpg","null","kitchen","C","non-repeat","null","236","stimuli/kitchen_23.jpg","","","","",""
"","","","","","image-keyboard-response","272","2.0.0","415161","pkr5zwjoqfy","falcon","null","stimuli/playground_38.jpg","null","playground","D","non-repeat","null","237","stimuli/playground_38.jpg","","","","",""
"","","","","","image-keyboard-response","273","2.0.0","416165","pkr5zwjoqfy","falcon","313","stimuli/playground_38.jpg"," ","playground","D","repeat"," ","237","","","","","",""
"","","","","","image-keyboard-response","274","2.0.0","417168","pkr5zwjoqfy","falcon","null","stimuli/gym_21.jpg","null","gym","E","non-repeat","null","238","stimuli/gym_21.jpg","","","","",""
"","","","","","image-keyboard-response","275","2.0.0","418172","pkr5zwjoqfy","falcon","null","stimuli/bridge_11.jpg","null","bridge","F","non-repeat","null","239","stimuli/bridge_11.jpg","","","","",""
"","","","","","image-keyboard-response","276","2.0.0","419176","pkr5zwjoqfy","falcon","null","stimuli/desert_51.jpg","null","desert","A","non-repeat","null","240","stimuli/desert_51.jpg","","","","",""
"","","","","","image-keyboard-response","277","2.0.0","420180","pkr5zwjoqfy","falcon","null","stimuli/stream_8.jpg","null","stream","B","non-repeat","null","241","stimuli/stream_8.jpg","","","","",""
"","","","","","image-keyboard-response","278","2.0.0","421185","pkr5zwjoqfy","falcon","null","stimuli/kitchen_23.jpg","null","kitchen","C","non-repeat","null","242","stimuli/kitchen_23.jpg","","","","",""
"","","","","","image-keyboard-response","279","2.0.0","422188","pkr5zwjoqfy","falcon","null","stimuli/coast_33.jpg","null","coast","J","non-repeat","null","243","stimuli/coast_33.jpg","","","","",""
"","","","","","image-keyboard-response","280","2.0.0","423193","pkr5zwjoqfy","falcon","null","stimuli/woods_51.jpg","null","woods","K","non-repeat","null","244","stimuli/woods_51.jpg","","","","",""
"","","","","","image-keyboard-response","281","2.0.0","424198","pkr5zwjoqfy","falcon","null","stimuli/field_27.jpg","null","field","L","non-repeat","null","245","stimuli/field_27.jpg","","","","",""
"","","","","","image-keyboard-response","282","2.0.0","425202","pkr5zwjoqfy","falcon","null","stimuli/street_28.jpg","null","street","G","non-repeat","null","246","stimuli/street_28.jpg","","","","",""
"","","","","","image-keyboard-response","283","2.0.0","426206","pkr5zwjoqfy","falcon","null","stimuli/bathroom_50.jpg","null","bathroom","H","non-repeat","null","247","stimuli/bathroom_50.jpg","","","","",""
"","","","","","image-keyboard-response","284","2.0.0","427211","pkr5zwjoqfy","falcon","null","stimuli/bar_58.jpg","null","bar","I","non-repeat","null","248","stimuli/bar_58.jpg","","","","",""
"","","","","","image-keyboard-response","285","2.0.0","428215","pkr5zwjoqfy","falcon","null","stimuli/desert_51.jpg","null","desert","A","non-repeat","null","249","stimuli/desert_51.jpg","","","","",""
"","","","","","image-keyboard-response","286","2.0.0","429218","pkr5zwjoqfy","falcon","null","stimuli/stream_8.jpg","null","stream","B","non-repeat","null","250","stimuli/stream_8.jpg","","","","",""
"","","","","","image-keyboard-response","287","2.0.0","430223","pkr5zwjoqfy","falcon","null","stimuli/kitchen_23.jpg","null","kitchen","C","non-repeat","null","251","stimuli/kitchen_23.jpg","","","","",""
"","","","","","image-keyboard-response","288","2.0.0","431228","pkr5zwjoqfy","falcon","null","stimuli/coast_33.jpg","null","coast","J","non-repeat","null","252","stimuli/coast_33.jpg","","","","",""
"","","","","","image-keyboard-response","289","2.0.0","432231","pkr5zwjoqfy","falcon","null","stimuli/woods_51.jpg","null","woods","K","non-repeat","null","253","stimuli/woods_51.jpg","","","","",""
"","","","","","image-keyboard-response","290","2.0.0","433235","pkr5zwjoqfy","falcon","null","stimuli/field_27.jpg","null","field","L","non-repeat","null","254","stimuli/field_27.jpg","","","","",""
"","","","","","image-keyboard-response","291","2.0.0","434240","pkr5zwjoqfy","falcon","null","stimuli/playground_38.jpg","null","playground","D","non-repeat","null","255","stimuli/playground_38.jpg","","","","",""
"","","","","","image-keyboard-response","292","2.0.0","435244","pkr5zwjoqfy","falcon","477","stimuli/playground_38.jpg"," ","playground","D","repeat"," ","255","","","","","",""
"","","","","","image-keyboard-response","293","2.0.0","436248","pkr5zwjoqfy","falcon","null","stimuli/gym_21.jpg","null","gym","E","non-repeat","null","256","stimuli/gym_21.jpg","","","","",""
"","","","","","image-keyboard-response","294","2.0.0","437253","pkr5zwjoqfy","falcon","null","stimuli/bridge_11.jpg","null","bridge","F","non-repeat","null","257","stimuli/bridge_11.jpg","","","","",""
"","","","","","image-keyboard-response","295","2.0.0","438257","pkr5zwjoqfy","falcon","null","stimuli/desert_51.jpg","null","desert","A","non-repeat","null","258","stimuli/desert_51.jpg","","","","",""
"","","","","","image-keyboard-response","296","2.0.0","439262","pkr5zwjoqfy","falcon","null","stimuli/stream_8.jpg","null","stream","B","non-repeat","null","259","stimuli/stream_8.jpg","","","","",""
"","","","","","image-keyboard-response","297","2.0.0","440266","pkr5zwjoqfy","falcon","null","stimuli/kitchen_23.jpg","null","kitchen","C","non-repeat","null","260","stimuli/kitchen_23.jpg","","","","",""
"","","","","","image-keyboard-response","298","2.0.0","441270","pkr5zwjoqfy","falcon","null","stimuli/street_28.jpg","null","street","G","non-repeat","null","261","stimuli/street_28.jpg","","","","",""
"","","","","","image-keyboard-response","299","2.0.0","442274","pkr5zwjoqfy","falcon","null","stimuli/bathroom_50.jpg","null","bathroom","H","non-repeat","null","262","stimuli/bathroom_50.jpg","","","","",""
"","","","","","image-keyboard-response","300","2.0.0","443278","pkr5zwjoqfy","falcon","null","stimuli/bar_58.jpg","null","bar","I","non-repeat","null","263","stimuli/bar_58.jpg","","","","",""
"","","","","","image-keyboard-response","301","2.0.0","444283","pkr5zwjoqfy","falcon","null","stimuli/playground_38.jpg","null","playground","D","non-repeat","null","264","stimuli/playground_38.jpg","","","","",""
"","","","","","image-keyboard-response","302","2.0.0","445288","pkr5zwjoqfy","falcon","null","stimuli/playground_38.jpg","null","playground","D","repeat"," ","264","","","","","",""
"","","","","","image-keyboard-response","303","2.0.0","446292","pkr5zwjoqfy","falcon","null","stimuli/gym_21.jpg","null","gym","E","non-repeat","null","265","stimuli/gym_21.jpg","","","","",""
"","","","","","image-keyboard-response","304","2.0.0","447295","pkr5zwjoqfy","falcon","null","stimuli/bridge_11.jpg","null","bridge","F","non-repeat","null","266","stimuli/bridge_11.jpg","","","","",""
"","","","","","image-keyboard-response","305","2.0.0","448300","pkr5zwjoqfy","falcon","null","stimuli/street_28.jpg","null","street","G","non-repeat","null","267","stimuli/street_28.jpg","","","","",""
"","","","","","image-keyboard-response","306","2.0.0","449304","pkr5zwjoqfy","falcon","null","stimuli/bathroom_50.jpg","null","bathroom","H","non-repeat","null","268","stimuli/bathroom_50.jpg","","","","",""
"","","","","","image-keyboard-response","307","2.0.0","450308","pkr5zwjoqfy","falcon","null","stimuli/bar_58.jpg","null","bar","I","non-repeat","null","269","stimuli/bar_58.jpg","","","","",""
"","","","","","image-keyboard-response","308","2.0.0","451313","pkr5zwjoqfy","falcon","null","stimuli/playground_38.jpg","null","playground","D","non-repeat","null","270","stimuli/playground_38.jpg","","","","",""
"","","","","","image-keyboard-response","309","2.0.0","452317","pkr5zwjoqfy","falcon","null","stimuli/gym_21.jpg","null","gym","E","non-repeat","null","271","stimuli/gym_21.jpg","","","","",""
"","","","","","image-keyboard-response","310","2.0.0","453321","pkr5zwjoqfy","falcon","null","stimuli/bridge_11.jpg","null","bridge","F","non-repeat","null","272","stimuli/bridge_11.jpg","","","","",""
"","","","","","image-keyboard-response","311","2.0.0","454325","pkr5zwjoqfy","falcon","null","stimuli/desert_51.jpg","null","desert","A","non-repeat","null","273","stimuli/desert_51.jpg","","","","",""
"","","","","","image-keyboard-response","312","2.0.0","455329","pkr5zwjoqfy","falcon","null","stimuli/stream_8.jpg","null","stream","B","non-repeat","null","274","stimuli/stream_8.jpg","","","","",""
"","","","","","image-keyboard-response","313","2.0.0","456333","pkr5zwjoqfy","falcon","null","stimuli/kitchen_23.jpg","null","kitchen","C","non-repeat","null","275","stimuli/kitchen_23.jpg","","","","",""
"","","","","","image-keyboard-response","314","2.0.0","457338","pkr5zwjoqfy","falcon","null","stimuli/kitchen_23.jpg","null","kitchen","C","repeat"," ","275","","","","","",""
"","","","","","image-keyboard-response","315","2.0.0","458342","pkr5zwjoqfy","falcon","null","stimuli/coast_33.jpg","null","coast","J","non-repeat","null","276","stimuli/coast_33.jpg","","","","",""
"","","","","","image-keyboard-response","316","2.0.0","459346","pkr5zwjoqfy","falcon","null","stimuli/woods_51.jpg","null","woods","K","non-repeat","null","277","stimuli/woods_51.jpg","","","","",""
"","","","","","image-keyboard-response","317","2.0.0","460350","pkr5zwjoqfy","falcon","null","stimuli/field_27.jpg","null","field","L","non-repeat","null","278","stimuli/field_27.jpg","","","","",""
"","","","","","image-keyboard-response","318","2.0.0","461354","pkr5zwjoqfy","falcon","null","stimuli/desert_51.jpg","null","desert","A","non-repeat","null","279","stimuli/desert_51.jpg","","","","",""
"","","","","","image-keyboard-response","319","2.0.0","462359","pkr5zwjoqfy","falcon","591","stimuli/stream_8.jpg"," ","stream","B","non-repeat","null","280","stimuli/stream_8.jpg","","","","",""
"","","","","","image-keyboard-response","320","2.0.0","463363","pkr5zwjoqfy","falcon","null","stimuli/kitchen_23.jpg","null","kitchen","C","non-repeat","null","281","stimuli/kitchen_23.jpg","","","","",""
"","","","","","image-keyboard-response","321","2.0.0","464368","pkr5zwjoqfy","falcon","null","stimuli/playground_38.jpg","null","playground","D","non-repeat","null","282","stimuli/playground_38.jpg","","","","",""
"","","","","","image-keyboard-response","322","2.0.0","465372","pkr5zwjoqfy","falcon","null","stimuli/gym_21.jpg","null","gym","E","non-repeat","null","283","stimuli/gym_21.jpg","","","","",""
"","","","","","image-keyboard-response","323","2.0.0","466377","pkr5zwjoqfy","falcon","null","stimuli/bridge_11.jpg","null","bridge","F","non-repeat","null","284","stimuli/bridge_11.jpg","","","","",""
"","","","","","image-keyboard-response","324","2.0.0","467382","pkr5zwjoqfy","falcon","null","stimuli/street_28.jpg","null","street","G","non-repeat","null","285","stimuli/street_28.jpg","","","","",""
"","","","","","image-keyboard-response","325","2.0.0","468386","pkr5zwjoqfy","falcon","null","stimuli/bathroom_50.jpg","null","bathroom","H","non-repeat","null","286","stimuli/bathroom_50.jpg","","","","",""
"","","","","","image-keyboard-response","326","2.0.0","469391","pkr5zwjoqfy","falcon","null","stimuli/bar_58.jpg","null","bar","I","non-repeat","null","287","stimuli/bar_58.jpg","","","","",""
"","","","","","image-keyboard-response","327","2.0.0","470394","pkr5zwjoqfy","falcon","null","stimuli/playground_38.jpg","null","playground","D","non-repeat","null","288","stimuli/playground_38.jpg","","","","",""
"","","","","","image-keyboard-response","328","2.0.0","471399","pkr5zwjoqfy","falcon","null","stimuli/gym_21.jpg","null","gym","E","non-repeat","null","289","stimuli/gym_21.jpg","","","","",""
"","","","","","image-keyboard-response","329","2.0.0","472403","pkr5zwjoqfy","falcon","null","stimuli/bridge_11.jpg","null","bridge","F","non-repeat","null","290","stimuli/bridge_11.jpg","","","","",""
"","","","","","image-keyboard-response","330","2.0.0","473408","pkr5zwjoqfy","falcon","null","stimuli/street_28.jpg","null","street","G","non-repeat","null","291","stimuli/street_28.jpg","","","","",""
"","","","","","image-keyboard-response","331","2.0.0","474412","pkr5zwjoqfy","falcon","324","stimuli/street_28.jpg"," ","street","G","repeat"," ","291","","","","","",""
"","","","","","image-keyboard-response","332","2.0.0","475417","pkr5zwjoqfy","falcon","null","stimuli/bathroom_50.jpg","null","bathroom","H","non-repeat","null","292","stimuli/bathroom_50.jpg","","","","",""
"","","","","","image-keyboard-response","333","2.0.0","476421","pkr5zwjoqfy","falcon","null","stimuli/bar_58.jpg","null","bar","I","non-repeat","null","293","stimuli/bar_58.jpg","","","","",""
"","","","","","image-keyboard-response","334","2.0.0","477425","pkr5zwjoqfy","falcon","null","stimuli/bar_58.jpg","null","bar","I","repeat"," ","293","","","","","",""
"","","","","","image-keyboard-response","335","2.0.0","478430","pkr5zwjoqfy","falcon","null","stimuli/coast_33.jpg","null","coast","J","non-repeat","null","294","stimuli/coast_33.jpg","","","","",""
"","","","","","image-keyboard-response","336","2.0.0","479434","pkr5zwjoqfy","falcon","343","stimuli/coast_33.jpg"," ","coast","J","repeat"," ","294","","","","","",""
"","","","","","image-keyboard-response","337","2.0.0","480438","pkr5zwjoqfy","falcon","null","stimuli/woods_51.jpg","null","woods","K","non-repeat","null","295","stimuli/woods_51.jpg","","","","",""
"","","","","","image-keyboard-response","338","2.0.0","481443","pkr5zwjoqfy","falcon","null","stimuli/field_27.jpg","null","field","L","non-repeat","null","296","stimuli/field_27.jpg","","","","",""
"","","","","","image-keyboard-response","339","2.0.0","482448","pkr5zwjoqfy","falcon","null","stimuli/street_28.jpg","null","street","G","non-repeat","null","297","stimuli/street_28.jpg","","","","",""
"","","","","","image-keyboard-response","340","2.0.0","483452","pkr5zwjoqfy","falcon","null","stimuli/bathroom_50.jpg","null","bathroom","H","non-repeat","null","298","stimuli/bathroom_50.jpg","","","","",""
"","","","","","image-keyboard-response","341","2.0.0","484457","pkr5zwjoqfy","falcon","null","stimuli/bar_58.jpg","null","bar","I","non-repeat","null","299","stimuli/bar_58.jpg","","","","",""
"","","","","","image-keyboard-response","342","2.0.0","485460","pkr5zwjoqfy","falcon","null","stimuli/desert_51.jpg","null","desert","A","non-repeat","null","300","stimuli/desert_51.jpg","","","","",""
"","","","","","image-keyboard-response","343","2.0.0","486464","pkr5zwjoqfy","falcon","298","stimuli/desert_51.jpg"," ","desert","A","repeat"," ","300","","","","","",""
"","","","","","image-keyboard-response","344","2.0.0","487469","pkr5zwjoqfy","falcon","null","stimuli/stream_8.jpg","null","stream","B","non-repeat","null","301","stimuli/stream_8.jpg","","","","",""
"","","","","","image-keyboard-response","345","2.0.0","488473","pkr5zwjoqfy","falcon","null","stimuli/kitchen_23.jpg","null","kitchen","C","non-repeat","null","302","stimuli/kitchen_23.jpg","","","","",""
"","","","","","image-keyboard-response","346","2.0.0","489478","pkr5zwjoqfy","falcon","null","stimuli/coast_33.jpg","null","coast","J","non-repeat","null","303","stimuli/coast_33.jpg","","","","",""
"","","","","","image-keyboard-response","347","2.0.0","490483","pkr5zwjoqfy","falcon","null","stimuli/woods_51.jpg","null","woods","K","non-repeat","null","304","stimuli/woods_51.jpg","","","","",""
"","","","","","image-keyboard-response","348","2.0.0","491494","pkr5zwjoqfy","falcon","null","stimuli/field_27.jpg","null","field","L","non-repeat","null","305","stimuli/field_27.jpg","","","","",""
"","","","","","image-keyboard-response","349","2.0.0","492498","pkr5zwjoqfy","falcon","557","stimuli/desert_51.jpg"," ","desert","A","non-repeat","null","306","stimuli/desert_51.jpg","","","","",""
"","","","","","image-keyboard-response","350","2.0.0","493503","pkr5zwjoqfy","falcon","null","stimuli/stream_8.jpg","null","stream","B","non-repeat","null","307","stimuli/stream_8.jpg","","","","",""
"","","","","","image-keyboard-response","351","2.0.0","494507","pkr5zwjoqfy","falcon","null","stimuli/kitchen_23.jpg","null","kitchen","C","non-repeat","null","308","stimuli/kitchen_23.jpg","","","","",""
"","","","","","image-keyboard-response","352","2.0.0","495511","pkr5zwjoqfy","falcon","381","stimuli/kitchen_23.jpg"," ","kitchen","C","repeat"," ","308","","","","","",""
"","","","","","image-keyboard-response","353","2.0.0","496515","pkr5zwjoqfy","falcon","null","stimuli/playground_38.jpg","null","playground","D","non-repeat","null","309","stimuli/playground_38.jpg","","","","",""
"","","","","","image-keyboard-response","354","2.0.0","497520","pkr5zwjoqfy","falcon","null","stimuli/gym_21.jpg","null","gym","E","non-repeat","null","310","stimuli/gym_21.jpg","","","","",""
"","","","","","image-keyboard-response","355","2.0.0","498524","pkr5zwjoqfy","falcon","null","stimuli/bridge_11.jpg","null","bridge","F","non-repeat","null","311","stimuli/bridge_11.jpg","","","","",""
"","","","","","image-keyboard-response","356","2.0.0","499529","pkr5zwjoqfy","falcon","441","stimuli/bridge_11.jpg"," ","bridge","F","repeat"," ","311","","","","","",""
"","","","","","image-keyboard-response","357","2.0.0","500532","pkr5zwjoqfy","falcon","null","stimuli/street_28.jpg","null","street","G","non-repeat","null","312","stimuli/street_28.jpg","","","","",""
"","","","","","image-keyboard-response","358","2.0.0","501537","pkr5zwjoqfy","falcon","null","stimuli/bathroom_50.jpg","null","bathroom","H","non-repeat","null","313","stimuli/bathroom_50.jpg","","","","",""
"","","","","","image-keyboard-response","359","2.0.0","502541","pkr5zwjoqfy","falcon","null","stimuli/bar_58.jpg","null","bar","I","non-repeat","null","314","stimuli/bar_58.jpg","","","","",""
"","","","","","image-keyboard-response","360","2.0.0","503545","pkr5zwjoqfy","falcon","339","stimuli/bar_58.jpg"," ","bar","I","repeat"," ","314","","","","","",""
"","","","","","image-keyboard-response","361","2.0.0","504549","pkr5zwjoqfy","falcon","null","stimuli/playground_38.jpg","null","playground","D","non-repeat","null","315","stimuli/playground_38.jpg","","","","",""
"","","","","","image-keyboard-response","362","2.0.0","505553","pkr5zwjoqfy","falcon","null","stimuli/gym_21.jpg","null","gym","E","non-repeat","null","316","stimuli/gym_21.jpg","","","","",""
"","","","","","image-keyboard-response","363","2.0.0","506558","pkr5zwjoqfy","falcon","null","stimuli/bridge_11.jpg","null","bridge","F","non-repeat","null","317","stimuli/bridge_11.jpg","","","","",""
"","","","","","image-keyboard-response","364","2.0.0","507562","pkr5zwjoqfy","falcon","342","stimuli/bridge_11.jpg"," ","bridge","F","repeat"," ","317","","","","","",""
"","","","","","image-keyboard-response","365","2.0.0","508566","pkr5zwjoqfy","falcon","56","stimuli/coast_33.jpg"," ","coast","J","non-repeat","null","318","stimuli/coast_33.jpg","","","","",""
"","","","","","image-keyboard-response","366","2.0.0","509571","pkr5zwjoqfy","falcon","null","stimuli/woods_51.jpg","null","woods","K","non-repeat","null","319","stimuli/woods_51.jpg","","","","",""
"","","","","","image-keyboard-response","367","2.0.0","510575","pkr5zwjoqfy","falcon","null","stimuli/field_27.jpg","null","field","L","non-repeat","null","320","stimuli/field_27.jpg","","","","",""
"","","","","","image-keyboard-response","368","2.0.0","511579","pkr5zwjoqfy","falcon","null","stimuli/desert_51.jpg","null","desert","A","non-repeat","null","321","stimuli/desert_51.jpg","","","","",""
"","","","","","image-keyboard-response","369","2.0.0","512583","pkr5zwjoqfy","falcon","null","stimuli/stream_8.jpg","null","stream","B","non-repeat","null","322","stimuli/stream_8.jpg","","","","",""
"","","","","","image-keyboard-response","370","2.0.0","513588","pkr5zwjoqfy","falcon","null","stimuli/kitchen_23.jpg","null","kitchen","C","non-repeat","null","323","stimuli/kitchen_23.jpg","","","","",""
"","","","","","image-keyboard-response","371","2.0.0","514591","pkr5zwjoqfy","falcon","null","stimuli/playground_38.jpg","null","playground","D","non-repeat","null","324","stimuli/playground_38.jpg","","","","",""
"","","","","","image-keyboard-response","372","2.0.0","515596","pkr5zwjoqfy","falcon","null","stimuli/gym_21.jpg","null","gym","E","non-repeat","null","325","stimuli/gym_21.jpg","","","","",""
"","","","","","image-keyboard-response","373","2.0.0","516600","pkr5zwjoqfy","falcon","null","stimuli/bridge_11.jpg","null","bridge","F","non-repeat","null","326","stimuli/bridge_11.jpg","","","","",""
"","","","","","image-keyboard-response","374","2.0.0","517604","pkr5zwjoqfy","falcon","null","stimuli/coast_33.jpg","null","coast","J","non-repeat","null","327","stimuli/coast_33.jpg","","","","",""
"","","","","","image-keyboard-response","375","2.0.0","518608","pkr5zwjoqfy","falcon","null","stimuli/woods_51.jpg","null","woods","K","non-repeat","null","328","stimuli/woods_51.jpg","","","","",""
"","","","","","image-keyboard-response","376","2.0.0","519612","pkr5zwjoqfy","falcon","null","stimuli/field_27.jpg","null","field","L","non-repeat","null","329","stimuli/field_27.jpg","","","","",""
"","","","","","image-keyboard-response","377","2.0.0","520616","pkr5zwjoqfy","falcon","null","stimuli/desert_51.jpg","null","desert","A","non-repeat","null","330","stimuli/desert_51.jpg","","","","",""
"","","","","","image-keyboard-response","378","2.0.0","521621","pkr5zwjoqfy","falcon","null","stimuli/stream_8.jpg","null","stream","B","non-repeat","null","331","stimuli/stream_8.jpg","","","","",""
"","","","","","image-keyboard-response","379","2.0.0","522626","pkr5zwjoqfy","falcon","null","stimuli/kitchen_23.jpg","null","kitchen","C","non-repeat","null","332","stimuli/kitchen_23.jpg","","","","",""
"","","","","","image-keyboard-response","380","2.0.0","523630","pkr5zwjoqfy","falcon","null","stimuli/coast_33.jpg","null","coast","J","non-repeat","null","333","stimuli/coast_33.jpg","","","","",""
"","","","","","image-keyboard-response","381","2.0.0","524634","pkr5zwjoqfy","falcon","424","stimuli/coast_33.jpg"," ","coast","J","repeat"," ","333","","","","","",""
"","","","","","image-keyboard-response","382","2.0.0","525638","pkr5zwjoqfy","falcon","null","stimuli/woods_51.jpg","null","woods","K","non-repeat","null","334","stimuli/woods_51.jpg","","","","",""
"","","","","","image-keyboard-response","383","2.0.0","526642","pkr5zwjoqfy","falcon","null","stimuli/field_27.jpg","null","field","L","non-repeat","null","335","stimuli/field_27.jpg","","","","",""
"","","","","","image-keyboard-response","384","2.0.0","527646","pkr5zwjoqfy","falcon","null","stimuli/playground_38.jpg","null","playground","D","non-repeat","null","336","stimuli/playground_38.jpg","","","","",""
"","","","","","image-keyboard-response","385","2.0.0","528650","pkr5zwjoqfy","falcon","null","stimuli/gym_21.jpg","null","gym","E","non-repeat","null","337","stimuli/gym_21.jpg","","","","",""
"","","","","","image-keyboard-response","386","2.0.0","529654","pkr5zwjoqfy","falcon","null","stimuli/bridge_11.jpg","null","bridge","F","non-repeat","null","338","stimuli/bridge_11.jpg","","","","",""
"","","","","","image-keyboard-response","387","2.0.0","530658","pkr5zwjoqfy","falcon","null","stimuli/coast_33.jpg","null","coast","J","non-repeat","null","339","stimuli/coast_33.jpg","","","","",""
"","","","","","image-keyboard-response","388","2.0.0","531663","pkr5zwjoqfy","falcon","573","stimuli/coast_33.jpg"," ","coast","J","repeat"," ","339","","","","","",""
"","","","","","image-keyboard-response","389","2.0.0","532667","pkr5zwjoqfy","falcon","null","stimuli/woods_51.jpg","null","woods","K","non-repeat","null","340","stimuli/woods_51.jpg","","","","",""
"","","","","","image-keyboard-response","390","2.0.0","533671","pkr5zwjoqfy","falcon","null","stimuli/field_27.jpg","null","field","L","non-repeat","null","341","stimuli/field_27.jpg","","","","",""
"","","","","","image-keyboard-response","391","2.0.0","534676","pkr5zwjoqfy","falcon","null","stimuli/playground_38.jpg","null","playground","D","non-repeat","null","342","stimuli/playground_38.jpg","","","","",""
"","","","","","image-keyboard-response","392","2.0.0","535680","pkr5zwjoqfy","falcon","null","stimuli/gym_21.jpg","null","gym","E","non-repeat","null","343","stimuli/gym_21.jpg","","","","",""
"","","","","","image-keyboard-response","393","2.0.0","536684","pkr5zwjoqfy","falcon","null","stimuli/bridge_11.jpg","null","bridge","F","non-repeat","null","344","stimuli/bridge_11.jpg","","","","",""
"","","","","","image-keyboard-response","394","2.0.0","537688","pkr5zwjoqfy","falcon","null","stimuli/desert_51.jpg","null","desert","A","non-repeat","null","345","stimuli/desert_51.jpg","","","","",""
"","","","","","image-keyboard-response","395","2.0.0","538692","pkr5zwjoqfy","falcon","null","stimuli/stream_8.jpg","null","stream","B","non-repeat","null","346","stimuli/stream_8.jpg","","","","",""
"","","","","","image-keyboard-response","396","2.0.0","539696","pkr5zwjoqfy","falcon","null","stimuli/kitchen_23.jpg","null","kitchen","C","non-repeat","null","347","stimuli/kitchen_23.jpg","","","","",""
"","","","","","image-keyboard-response","397","2.0.0","540700","pkr5zwjoqfy","falcon","null","stimuli/street_28.jpg","null","street","G","non-repeat","null","348","stimuli/street_28.jpg","","","","",""
"","","","","","image-keyboard-response","398","2.0.0","541704","pkr5zwjoqfy","falcon","null","stimuli/bathroom_50.jpg","null","bathroom","H","non-repeat","null","349","stimuli/bathroom_50.jpg","","","","",""
"","","","","","image-keyboard-response","399","2.0.0","542708","pkr5zwjoqfy","falcon","null","stimuli/bar_58.jpg","null","bar","I","non-repeat","null","350","stimuli/bar_58.jpg","","","","",""
"","","","","","image-keyboard-response","400","2.0.0","543712","pkr5zwjoqfy","falcon","null","stimuli/desert_51.jpg","null","desert","A","non-repeat","null","351","stimuli/desert_51.jpg","","","","",""
"","","","","","image-keyboard-response","401","2.0.0","544717","pkr5zwjoqfy","falcon","null","stimuli/stream_8.jpg","null","stream","B","non-repeat","null","352","stimuli/stream_8.jpg","","","","",""
"","","","","","image-keyboard-response","402","2.0.0","545721","pkr5zwjoqfy","falcon","null","stimuli/kitchen_23.jpg","null","kitchen","C","non-repeat","null","353","stimuli/kitchen_23.jpg","","","","",""
"","","","","","image-keyboard-response","403","2.0.0","546725","pkr5zwjoqfy","falcon","null","stimuli/coast_33.jpg","null","coast","J","non-repeat","null","354","stimuli/coast_33.jpg","","","","",""
"","","","","","image-keyboard-response","404","2.0.0","547729","pkr5zwjoqfy","falcon","488","stimuli/coast_33.jpg"," ","coast","J","repeat"," ","354","","","","","",""
"","","","","","image-keyboard-response","405","2.0.0","548733","pkr5zwjoqfy","falcon","null","stimuli/woods_51.jpg","null","woods","K","non-repeat","null","355","stimuli/woods_51.jpg","","","","",""
"","","","","","image-keyboard-response","406","2.0.0","549737","pkr5zwjoqfy","falcon","null","stimuli/field_27.jpg","null","field","L","non-repeat","null","356","stimuli/field_27.jpg","","","","",""
"","","","","","image-keyboard-response","407","2.0.0","550741","pkr5zwjoqfy","falcon","null","stimuli/street_28.jpg","null","street","G","non-repeat","null","357","stimuli/street_28.jpg","","","","",""
"","","","","","image-keyboard-response","408","2.0.0","551745","pkr5zwjoqfy","falcon","null","stimuli/bathroom_50.jpg","null","bathroom","H","non-repeat","null","358","stimuli/bathroom_50.jpg","","","","",""
"","","","","","image-keyboard-response","409","2.0.0","552750","pkr5zwjoqfy","falcon","null","stimuli/bar_58.jpg","null","bar","I","non-repeat","null","359","stimuli/bar_58.jpg","","","","",""
"","","","","","image-keyboard-response","410","2.0.0","553755","pkr5zwjoqfy","falcon","null","stimuli/bar_58.jpg","null","bar","I","repeat"," ","359","","","","","",""
"","","","","","image-keyboard-response","411","2.0.0","554760","pkr5zwjoqfy","falcon","null","stimuli/coast_33.jpg","null","coast","J","non-repeat","null","360","stimuli/coast_33.jpg","","","","",""
"","","","","","image-keyboard-response","412","2.0.0","555764","pkr5zwjoqfy","falcon","null","stimuli/woods_51.jpg","null","woods","K","non-repeat","null","361","stimuli/woods_51.jpg","","","","",""
"","","","","","image-keyboard-response","413","2.0.0","556768","pkr5zwjoqfy","falcon","null","stimuli/field_27.jpg","null","field","L","non-repeat","null","362","stimuli/field_27.jpg","","","","",""
"","","","","","image-keyboard-response","414","2.0.0","557773","pkr5zwjoqfy","falcon","401","stimuli/field_27.jpg"," ","field","L","repeat"," ","362","","","","","",""
"","","","","","image-keyboard-response","415","2.0.0","558777","pkr5zwjoqfy","falcon","null","stimuli/street_28.jpg","null","street","G","non-repeat","null","363","stimuli/street_28.jpg","","","","",""
"","","","","","image-keyboard-response","416","2.0.0","559781","pkr5zwjoqfy","falcon","null","stimuli/bathroom_50.jpg","null","bathroom","H","non-repeat","null","364","stimuli/bathroom_50.jpg","","","","",""
"","","","","","image-keyboard-response","417","2.0.0","560784","pkr5zwjoqfy","falcon","null","stimuli/bar_58.jpg","null","bar","I","non-repeat","null","365","stimuli/bar_58.jpg","","","","",""
"","","","","","image-keyboard-response","418","2.0.0","561788","pkr5zwjoqfy","falcon","null","stimuli/coast_33.jpg","null","coast","J","non-repeat","null","366","stimuli/coast_33.jpg","","","","",""
"","","","","","image-keyboard-response","419","2.0.0","562792","pkr5zwjoqfy","falcon","413","stimuli/coast_33.jpg"," ","coast","J","repeat"," ","366","","","","","",""
"","","","","","image-keyboard-response","420","2.0.0","563797","pkr5zwjoqfy","falcon","null","stimuli/woods_51.jpg","null","woods","K","non-repeat","null","367","stimuli/woods_51.jpg","","","","",""
"","","","","","image-keyboard-response","421","2.0.0","564802","pkr5zwjoqfy","falcon","null","stimuli/field_27.jpg","null","field","L","non-repeat","null","368","stimuli/field_27.jpg","","","","",""
"","","","","","image-keyboard-response","422","2.0.0","565806","pkr5zwjoqfy","falcon","null","stimuli/street_28.jpg","null","street","G","non-repeat","null","369","stimuli/street_28.jpg","","","","",""
"","","","","","image-keyboard-response","423","2.0.0","566811","pkr5zwjoqfy","falcon","619","stimuli/street_28.jpg"," ","street","G","repeat"," ","369","","","","","",""
"","","","","","image-keyboard-response","424","2.0.0","567815","pkr5zwjoqfy","falcon","null","stimuli/bathroom_50.jpg","null","bathroom","H","non-repeat","null","370","stimuli/bathroom_50.jpg","","","","",""
"","","","","","image-keyboard-response","425","2.0.0","568818","pkr5zwjoqfy","falcon","585","stimuli/bar_58.jpg"," ","bar","I","non-repeat","null","371","stimuli/bar_58.jpg","","","","",""
"","","","","","image-keyboard-response","426","2.0.0","569823","pkr5zwjoqfy","falcon","null","stimuli/coast_33.jpg","null","coast","J","non-repeat","null","372","stimuli/coast_33.jpg","","","","",""
"","","","","","image-keyboard-response","427","2.0.0","570827","pkr5zwjoqfy","falcon","null","stimuli/woods_51.jpg","null","woods","K","non-repeat","null","373","stimuli/woods_51.jpg","","","","",""
"","","","","","image-keyboard-response","428","2.0.0","571831","pkr5zwjoqfy","falcon","null","stimuli/field_27.jpg","null","field","L","non-repeat","null","374","stimuli/field_27.jpg","","","","",""
"","","","","","image-keyboard-response","429","2.0.0","572835","pkr5zwjoqfy","falcon","null","stimuli/street_28.jpg","null","street","G","non-repeat","null","375","stimuli/street_28.jpg","","","","",""
"","","","","","image-keyboard-response","430","2.0.0","573839","pkr5zwjoqfy","falcon","507","stimuli/street_28.jpg"," ","street","G","repeat"," ","375","","","","","",""
"","","","","","image-keyboard-response","431","2.0.0","574844","pkr5zwjoqfy","falcon","null","stimuli/bathroom_50.jpg","null","bathroom","H","non-repeat","null","376","stimuli/bathroom_50.jpg","","","","",""
"","","","","","image-keyboard-response","432","2.0.0","575848","pkr5zwjoqfy","falcon","null","stimuli/bar_58.jpg","null","bar","I","non-repeat","null","377","stimuli/bar_58.jpg","","","","",""
"","","","","","image-keyboard-response","433","2.0.0","576853","pkr5zwjoqfy","falcon","null","stimuli/playground_38.jpg","null","playground","D","non-repeat","null","378","stimuli/playground_38.jpg","","","","",""
"","","","","","image-keyboard-response","434","2.0.0","577864","pkr5zwjoqfy","falcon","null","stimuli/gym_21.jpg","null","gym","E","non-repeat","null","379","stimuli/gym_21.jpg","","","","",""
"","","","","","image-keyboard-response","435","2.0.0","578868","pkr5zwjoqfy","falcon","null","stimuli/bridge_11.jpg","null","bridge","F","non-repeat","null","380","stimuli/bridge_11.jpg","","","","",""
"","","","","","image-keyboard-response","436","2.0.0","579872","pkr5zwjoqfy","falcon","null","stimuli/coast_33.jpg","null","coast","J","non-repeat","null","381","stimuli/coast_33.jpg","","","","",""
"","","","","","image-keyboard-response","437","2.0.0","580874","pkr5zwjoqfy","falcon","null","stimuli/woods_51.jpg","null","woods","K","non-repeat","null","382","stimuli/woods_51.jpg","","","","",""
"","","","","","image-keyboard-response","438","2.0.0","581876","pkr5zwjoqfy","falcon","null","stimuli/field_27.jpg","null","field","L","non-repeat","null","383","stimuli/field_27.jpg","","","","",""
"","","","","","image-keyboard-response","439","2.0.0","582878","pkr5zwjoqfy","falcon","null","stimuli/street_28.jpg","null","street","G","non-repeat","null","384","stimuli/street_28.jpg","","","","",""
"","","","","","image-keyboard-response","440","2.0.0","583881","pkr5zwjoqfy","falcon","378","stimuli/street_28.jpg"," ","street","G","repeat"," ","384","","","","","",""
"","","","","","image-keyboard-response","441","2.0.0","584886","pkr5zwjoqfy","falcon","598","stimuli/bathroom_50.jpg"," ","bathroom","H","non-repeat","null","385","stimuli/bathroom_50.jpg","","","","",""
"","","","","","image-keyboard-response","442","2.0.0","585890","pkr5zwjoqfy","falcon","null","stimuli/bar_58.jpg","null","bar","I","non-repeat","null","386","stimuli/bar_58.jpg","","","","",""
"","","","","","image-keyboard-response","443","2.0.0","586894","pkr5zwjoqfy","falcon","null","stimuli/desert_51.jpg","null","desert","A","non-repeat","null","387","stimuli/desert_51.jpg","","","","",""
"","","","","","image-keyboard-response","444","2.0.0","587898","pkr5zwjoqfy","falcon","null","stimuli/stream_8.jpg","null","stream","B","non-repeat","null","388","stimuli/stream_8.jpg","","","","",""
"","","","","","image-keyboard-response","445","2.0.0","588902","pkr5zwjoqfy","falcon","407","stimuli/kitchen_23.jpg"," ","kitchen","C","non-repeat","null","389","stimuli/kitchen_23.jpg","","","","",""
"","","","","","image-keyboard-response","446","2.0.0","589907","pkr5zwjoqfy","falcon","null","stimuli/street_28.jpg","null","street","G","non-repeat","null","390","stimuli/street_28.jpg","","","","",""
"","","","","","image-keyboard-response","447","2.0.0","590910","pkr5zwjoqfy","falcon","null","stimuli/bathroom_50.jpg","null","bathroom","H","non-repeat","null","391","stimuli/bathroom_50.jpg","","","","",""
"","","","","","image-keyboard-response","448","2.0.0","591914","pkr5zwjoqfy","falcon","null","stimuli/bar_58.jpg","null","bar","I","non-repeat","null","392","stimuli/bar_58.jpg","","","","",""
"","","","","","image-keyboard-response","449","2.0.0","592919","pkr5zwjoqfy","falcon","308","stimuli/bar_58.jpg"," ","bar","I","repeat"," ","392","","","","","",""
"","","","","","image-keyboard-response","450","2.0.0","593923","pkr5zwjoqfy","falcon","null","stimuli/playground_38.jpg","null","playground","D","non-repeat","null","393","stimuli/playground_38.jpg","","","","",""
"","","","","","image-keyboard-response","451","2.0.0","594927","pkr5zwjoqfy","falcon","null","stimuli/gym_21.jpg","null","gym","E","non-repeat","null","394","stimuli/gym_21.jpg","","","","",""
"","","","","","image-keyboard-response","452","2.0.0","595931","pkr5zwjoqfy","falcon","null","stimuli/bridge_11.jpg","null","bridge","F","non-repeat","null","395","stimuli/bridge_11.jpg","","","","",""
"","","","","","image-keyboard-response","453","2.0.0","597110","pkr5zwjoqfy","falcon","null","stimuli/desert_51.jpg","null","desert","A","non-repeat","null","396","stimuli/desert_51.jpg","","","","",""
"","","","","","image-keyboard-response","454","2.0.0","598114","pkr5zwjoqfy","falcon","null","stimuli/stream_8.jpg","null","stream","B","non-repeat","null","397","stimuli/stream_8.jpg","","","","",""
"","","","","","image-keyboard-response","455","2.0.0","599118","pkr5zwjoqfy","falcon","null","stimuli/kitchen_23.jpg","null","kitchen","C","non-repeat","null","398","stimuli/kitchen_23.jpg","","","","",""
"","","","","","image-keyboard-response","456","2.0.0","600122","pkr5zwjoqfy","falcon","null","stimuli/street_28.jpg","null","street","G","non-repeat","null","399","stimuli/street_28.jpg","","","","",""
"","","","","","image-keyboard-response","457","2.0.0","601124","pkr5zwjoqfy","falcon","null","stimuli/bathroom_50.jpg","null","bathroom","H","non-repeat","null","400","stimuli/bathroom_50.jpg","","","","",""
"","","","","","image-keyboard-response","458","2.0.0","602126","pkr5zwjoqfy","falcon","null","stimuli/bar_58.jpg","null","bar","I","non-repeat","null","401","stimuli/bar_58.jpg","","","","",""
"","","","","","image-keyboard-response","459","2.0.0","603130","pkr5zwjoqfy","falcon","null","stimuli/playground_38.jpg","null","playground","D","non-repeat","null","402","stimuli/playground_38.jpg","","","","",""
"","","","","","image-keyboard-response","460","2.0.0","604134","pkr5zwjoqfy","falcon","null","stimuli/gym_21.jpg","null","gym","E","non-repeat","null","403","stimuli/gym_21.jpg","","","","",""
"","","","","","image-keyboard-response","461","2.0.0","605138","pkr5zwjoqfy","falcon","null","stimuli/bridge_11.jpg","null","bridge","F","non-repeat","null","404","stimuli/bridge_11.jpg","","","","",""
"","","","","","image-keyboard-response","462","2.0.0","606142","pkr5zwjoqfy","falcon","942","stimuli/bridge_11.jpg"," ","bridge","F","repeat"," ","404","","","","","",""
"","","","","","image-keyboard-response","463","2.0.0","607146","pkr5zwjoqfy","falcon","null","stimuli/coast_33.jpg","null","coast","J","non-repeat","null","405","stimuli/coast_33.jpg","","","","",""
"","","","","","image-keyboard-response","464","2.0.0","608151","pkr5zwjoqfy","falcon","398","stimuli/coast_33.jpg"," ","coast","J","repeat"," ","405","","","","","",""
"","","","","","image-keyboard-response","465","2.0.0","609154","pkr5zwjoqfy","falcon","null","stimuli/woods_51.jpg","null","woods","K","non-repeat","null","406","stimuli/woods_51.jpg","","","","",""
"","","","","","image-keyboard-response","466","2.0.0","610159","pkr5zwjoqfy","falcon","null","stimuli/field_27.jpg","null","field","L","non-repeat","null","407","stimuli/field_27.jpg","","","","",""
"","","","","","image-keyboard-response","467","2.0.0","611162","pkr5zwjoqfy","falcon","null","stimuli/street_28.jpg","null","street","G","non-repeat","null","408","stimuli/street_28.jpg","","","","",""
"","","","","","image-keyboard-response","468","2.0.0","612167","pkr5zwjoqfy","falcon","null","stimuli/bathroom_50.jpg","null","bathroom","H","non-repeat","null","409","stimuli/bathroom_50.jpg","","","","",""
"","","","","","image-keyboard-response","469","2.0.0","613171","pkr5zwjoqfy","falcon","null","stimuli/bar_58.jpg","null","bar","I","non-repeat","null","410","stimuli/bar_58.jpg","","","","",""
"","","","","","image-keyboard-response","470","2.0.0","614175","pkr5zwjoqfy","falcon","469","stimuli/playground_38.jpg"," ","playground","D","non-repeat","null","411","stimuli/playground_38.jpg","","","","",""
"","","","","","image-keyboard-response","471","2.0.0","615179","pkr5zwjoqfy","falcon","null","stimuli/gym_21.jpg","null","gym","E","non-repeat","null","412","stimuli/gym_21.jpg","","","","",""
"","","","","","image-keyboard-response","472","2.0.0","616182","pkr5zwjoqfy","falcon","null","stimuli/bridge_11.jpg","null","bridge","F","non-repeat","null","413","stimuli/bridge_11.jpg","","","","",""
"","","","","","image-keyboard-response","473","2.0.0","617185","pkr5zwjoqfy","falcon","null","stimuli/desert_51.jpg","null","desert","A","non-repeat","null","414","stimuli/desert_51.jpg","","","","",""
"","","","","","image-keyboard-response","474","2.0.0","618189","pkr5zwjoqfy","falcon","null","stimuli/stream_8.jpg","null","stream","B","non-repeat","null","415","stimuli/stream_8.jpg","","","","",""
"","","","","","image-keyboard-response","475","2.0.0","619194","pkr5zwjoqfy","falcon","null","stimuli/kitchen_23.jpg","null","kitchen","C","non-repeat","null","416","stimuli/kitchen_23.jpg","","","","",""
"","","","","","html-keyboard-response","476","2.0.0","640482","pkr5zwjoqfy","falcon","21286","
    <div style='width:900px;margin: auto;'><p>In the next part of the experiment, we want to see how well you learned the structure in the stream of images.</p>
    <p>On each trial, you will see two sequences of three images, sequence 1 and 2. We will ask you to indicate which sequence was more familiar based on the first part of the experiment.</p>
    <p>Press 1 if the first sequence (sequence 1) felt more familiar. Press 2 if the second sequence (sequence 2) felt more familiar.</p>
    <p>Press any key to begin.</p></div>"," ","","","","","","","","","","",""
"","","","","","html-keyboard-response","477","2.0.0","641485","pkr5zwjoqfy","falcon","null","<p>Sequence 1</p>","null","","","","","","","","","","",""
"","","","","","image-keyboard-response","478","2.0.0","642489","pkr5zwjoqfy","falcon","null","stimuli/coast_33.jpg","null","","","","","","","","","","",""
"","","","","","image-keyboard-response","479","2.0.0","643493","pkr5zwjoqfy","falcon","null","stimuli/woods_51.jpg","null","","","","","","","","","","",""
"","","","","","image-keyboard-response","480","2.0.0","644497","pkr5zwjoqfy","falcon","null","stimuli/field_27.jpg","null","","","","","","","","","","",""
"","","","","","html-keyboard-response","481","2.0.0","645501","pkr5zwjoqfy","falcon","null","<p></p>","null","","","","","","","","","","",""
"","","","","","html-keyboard-response","482","2.0.0","646505","pkr5zwjoqfy","falcon","null","<p>Sequence 2</p>","null","","","","","","","","","","",""
"","","","","","image-keyboard-response","483","2.0.0","647509","pkr5zwjoqfy","falcon","null","stimuli/coast_33.jpg","null","","","","","","","","","","",""
"","","","","","image-keyboard-response","484","2.0.0","648513","pkr5zwjoqfy","falcon","null","stimuli/stream_8.jpg","null","","","","","","","","","","",""
"","","","","","image-keyboard-response","485","2.0.0","649517","pkr5zwjoqfy","falcon","null","stimuli/bridge_11.jpg","null","","","","","","","","","","",""
"","","","","","html-keyboard-response","486","2.0.0","651319","pkr5zwjoqfy","falcon","1801","<p>Press '1' if the first sequence was familiar, '2' if the second was.</p>","2","","","1","","","","[""J"",""K"",""L""]","[""J"",""B"",""F""]","false","[""<p>Sequence 1</p>"",""stimuli/coast_33.jpg"",""stimuli/woods_51.jpg"",""stimuli/field_27.jpg""]","[""<p>Sequence 2</p>"",""stimuli/coast_33.jpg"",""stimuli/stream_8.jpg"",""stimuli/bridge_11.jpg""]"
"","","","","","html-keyboard-response","487","2.0.0","652324","pkr5zwjoqfy","falcon","null","<p>Sequence 1</p>","null","","","","","","","","","","",""
"","","","","","image-keyboard-response","488","2.0.0","653328","pkr5zwjoqfy","falcon","null","stimuli/street_28.jpg","null","","","","","","","","","","",""
"","","","","","image-keyboard-response","489","2.0.0","654332","pkr5zwjoqfy","falcon","null","stimuli/bathroom_50.jpg","null","","","","","","","","","","",""
"","","","","","image-keyboard-response","490","2.0.0","655336","pkr5zwjoqfy","falcon","null","stimuli/bar_58.jpg","null","","","","","","","","","","",""
"","","","","","html-keyboard-response","491","2.0.0","656339","pkr5zwjoqfy","falcon","null","<p></p>","null","","","","","","","","","","",""
"","","","","","html-keyboard-response","492","2.0.0","657343","pkr5zwjoqfy","falcon","null","<p>Sequence 2</p>","null","","","","","","","","","","",""
"","","","","","image-keyboard-response","493","2.0.0","658347","pkr5zwjoqfy","falcon","null","stimuli/playground_38.jpg","null","","","","","","","","","","",""
"","","","","","image-keyboard-response","494","2.0.0","659351","pkr5zwjoqfy","falcon","null","stimuli/bathroom_50.jpg","null","","","","","","","","","","",""
"","","","","","image-keyboard-response","495","2.0.0","660355","pkr5zwjoqfy","falcon","null","stimuli/field_27.jpg","null","","","","","","","","","","",""
"","","","","","html-keyboard-response","496","2.0.0","660607","pkr5zwjoqfy","falcon","250","<p>Press '1' if the first sequence was familiar, '2' if the second was.</p>","1","","","1","","","","[""G"",""H"",""I""]","[""D"",""H"",""L""]","true","[""<p>Sequence 1</p>"",""stimuli/street_28.jpg"",""stimuli/bathroom_50.jpg"",""stimuli/bar_58.jpg""]","[""<p>Sequence 2</p>"",""stimuli/playground_38.jpg"",""stimuli/bathroom_50.jpg"",""stimuli/field_27.jpg""]"
"","","","","","html-keyboard-response","497","2.0.0","661610","pkr5zwjoqfy","falcon","null","<p>Sequence 1</p>","null","","","","","","","","","","",""
"","","","","","image-keyboard-response","498","2.0.0","662615","pkr5zwjoqfy","falcon","null","stimuli/coast_33.jpg","null","","","","","","","","","","",""
"","","","","","image-keyboard-response","499","2.0.0","663619","pkr5zwjoqfy","falcon","null","stimuli/stream_8.jpg","null","","","","","","","","","","",""
