"success","timeout","failed_images","failed_audio","failed_video","trial_type","trial_index","plugin_version","time_elapsed","random_id","participant","rt","stimulus","response","category","letter","correct_response","correct_response_key","trial_counter","current_image","test_triplet","foil_triplet","correct","firstSequencePaths","secondSequencePaths"
"true","false","[]","[]","[]","preload","0","2.0.0","360","plhygmgtf28","kangaroo","","","","","","","","","","","","","",""
"true","","","","","fullscreen","1","null","2480","plhygmgtf28","kangaroo","1115","","","","","","","","","","","","",""
"","","","","","html-keyboard-response","2","2.0.0","3192","plhygmgtf28","kangaroo","709","Welcome to the experiment. Press any key to begin."," ","","","","","","","","","","",""
"","","","","","survey-text","3","2.0.0","5243","plhygmgtf28","kangaroo","2044","","{""participant_id"":""kangaroo""}","","","","","","","","","","",""
"","","","","","html-keyboard-response","4","2.0.0","12594","plhygmgtf28","kangaroo","7348","
  <p>For this trial, you will see a series of images.</p>
  <p><b>Press the spacebar whenever you see the same image appear twice in a row.</b></p>
  <p>In other words, whenever the same image repeats back to back, press the spacebar.</p>
  <p>Press any key to begin.</p>"," ","","","","","","","","","","",""
"","","","","","image-keyboard-response","5","2.0.0","13600","plhygmgtf28","kangaroo","null","stimuli/field_59.jpg","null","field","G","non-repeat","null","0","stimuli/field_59.jpg","","","","",""
"","","","","","image-keyboard-response","6","2.0.0","14604","plhygmgtf28","kangaroo","null","stimuli/gym_67.jpg","null","gym","H","non-repeat","null","1","stimuli/gym_67.jpg","","","","",""
"","","","","","image-keyboard-response","7","2.0.0","15609","plhygmgtf28","kangaroo","null","stimuli/playground_14.jpg","null","playground","I","non-repeat","null","2","stimuli/playground_14.jpg","","","","",""
"","","","","","image-keyboard-response","8","2.0.0","16614","plhygmgtf28","kangaroo","null","stimuli/desert_17.jpg","null","desert","J","non-repeat","null","3","stimuli/desert_17.jpg","","","","",""
"","","","","","image-keyboard-response","9","2.0.0","17618","plhygmgtf28","kangaroo","null","stimuli/bar_9.jpg","null","bar","K","non-repeat","null","4","stimuli/bar_9.jpg","","","","",""
"","","","","","image-keyboard-response","10","2.0.0","18623","plhygmgtf28","kangaroo","null","stimuli/bridge_8.jpg","null","bridge","L","non-repeat","null","5","stimuli/bridge_8.jpg","","","","",""
"","","","","","image-keyboard-response","11","2.0.0","19628","plhygmgtf28","kangaroo","556","stimuli/bridge_8.jpg"," ","bridge","L","repeat"," ","5","","","","","",""
"","","","","","image-keyboard-response","12","2.0.0","20632","plhygmgtf28","kangaroo","null","stimuli/woods_68.jpg","null","woods","A","non-repeat","null","6","stimuli/woods_68.jpg","","","","",""
"","","","","","image-keyboard-response","13","2.0.0","21635","plhygmgtf28","kangaroo","478","stimuli/woods_68.jpg"," ","woods","A","repeat"," ","6","","","","","",""
"","","","","","image-keyboard-response","14","2.0.0","22638","plhygmgtf28","kangaroo","null","stimuli/bathroom_26.jpg","null","bathroom","B","non-repeat","null","7","stimuli/bathroom_26.jpg","","","","",""
"","","","","","image-keyboard-response","15","2.0.0","23641","plhygmgtf28","kangaroo","null","stimuli/coast_55.jpg","null","coast","C","non-repeat","null","8","stimuli/coast_55.jpg","","","","",""
"","","","","","image-keyboard-response","16","2.0.0","24645","plhygmgtf28","kangaroo","null","stimuli/field_59.jpg","null","field","G","non-repeat","null","9","stimuli/field_59.jpg","","","","",""
"","","","","","image-keyboard-response","17","2.0.0","25649","plhygmgtf28","kangaroo","null","stimuli/gym_67.jpg","null","gym","H","non-repeat","null","10","stimuli/gym_67.jpg","","","","",""
"","","","","","image-keyboard-response","18","2.0.0","26653","plhygmgtf28","kangaroo","null","stimuli/playground_14.jpg","null","playground","I","non-repeat","null","11","stimuli/playground_14.jpg","","","","",""
"","","","","","image-keyboard-response","19","2.0.0","27657","plhygmgtf28","kangaroo","null","stimuli/street_19.jpg","null","street","D","non-repeat","null","12","stimuli/street_19.jpg","","","","",""
"","","","","","image-keyboard-response","20","2.0.0","28660","plhygmgtf28","kangaroo","null","stimuli/kitchen_42.jpg","null","kitchen","E","non-repeat","null","13","stimuli/kitchen_42.jpg","","","","",""
"","","","","","image-keyboard-response","21","2.0.0","29664","plhygmgtf28","kangaroo","null","stimuli/stream_5.jpg","null","stream","F","non-repeat","null","14","stimuli/stream_5.jpg","","","","",""
"","","","","","image-keyboard-response","22","2.0.0","30668","plhygmgtf28","kangaroo","null","stimuli/desert_17.jpg","null","desert","J","non-repeat","null","15","stimuli/desert_17.jpg","","","","",""
"","","","","","image-keyboard-response","23","2.0.0","31672","plhygmgtf28","kangaroo","null","stimuli/desert_17.jpg","null","desert","J","repeat"," ","15","","","","","",""
"","","","","","image-keyboard-response","24","2.0.0","32676","plhygmgtf28","kangaroo","null","stimuli/bar_9.jpg","null","bar","K","non-repeat","null","16","stimuli/bar_9.jpg","","","","",""
"","","","","","image-keyboard-response","25","2.0.0","33680","plhygmgtf28","kangaroo","null","stimuli/bridge_8.jpg","null","bridge","L","non-repeat","null","17","stimuli/bridge_8.jpg","","","","",""
"","","","","","image-keyboard-response","26","2.0.0","34684","plhygmgtf28","kangaroo","null","stimuli/woods_68.jpg","null","woods","A","non-repeat","null","18","stimuli/woods_68.jpg","","","","",""
"","","","","","image-keyboard-response","27","2.0.0","35688","plhygmgtf28","kangaroo","null","stimuli/bathroom_26.jpg","null","bathroom","B","non-repeat","null","19","stimuli/bathroom_26.jpg","","","","",""
"","","","","","image-keyboard-response","28","2.0.0","36692","plhygmgtf28","kangaroo","null","stimuli/coast_55.jpg","null","coast","C","non-repeat","null","20","stimuli/coast_55.jpg","","","","",""
"","","","","","image-keyboard-response","29","2.0.0","37697","plhygmgtf28","kangaroo","null","stimuli/desert_17.jpg","null","desert","J","non-repeat","null","21","stimuli/desert_17.jpg","","","","",""
"","","","","","image-keyboard-response","30","2.0.0","38701","plhygmgtf28","kangaroo","null","stimuli/bar_9.jpg","null","bar","K","non-repeat","null","22","stimuli/bar_9.jpg","","","","",""
"","","","","","image-keyboard-response","31","2.0.0","39706","plhygmgtf28","kangaroo","null","stimuli/bridge_8.jpg","null","bridge","L","non-repeat","null","23","stimuli/bridge_8.jpg","","","","",""
"","","","","","image-keyboard-response","32","2.0.0","40710","plhygmgtf28","kangaroo","null","stimuli/woods_68.jpg","null","woods","A","non-repeat","null","24","stimuli/woods_68.jpg","","","","",""
"","","","","","image-keyboard-response","33","2.0.0","41715","plhygmgtf28","kangaroo","null","stimuli/bathroom_26.jpg","null","bathroom","B","non-repeat","null","25","stimuli/bathroom_26.jpg","","","","",""
"","","","","","image-keyboard-response","34","2.0.0","42719","plhygmgtf28","kangaroo","null","stimuli/coast_55.jpg","null","coast","C","non-repeat","null","26","stimuli/coast_55.jpg","","","","",""
"","","","","","image-keyboard-response","35","2.0.0","43724","plhygmgtf28","kangaroo","null","stimuli/desert_17.jpg","null","desert","J","non-repeat","null","27","stimuli/desert_17.jpg","","","","",""
"","","","","","image-keyboard-response","36","2.0.0","44728","plhygmgtf28","kangaroo","null","stimuli/bar_9.jpg","null","bar","K","non-repeat","null","28","stimuli/bar_9.jpg","","","","",""
"","","","","","image-keyboard-response","37","2.0.0","45732","plhygmgtf28","kangaroo","null","stimuli/bridge_8.jpg","null","bridge","L","non-repeat","null","29","stimuli/bridge_8.jpg","","","","",""
"","","","","","image-keyboard-response","38","2.0.0","46736","plhygmgtf28","kangaroo","null","stimuli/field_59.jpg","null","field","G","non-repeat","null","30","stimuli/field_59.jpg","","","","",""
"","","","","","image-keyboard-response","39","2.0.0","47741","plhygmgtf28","kangaroo","null","stimuli/gym_67.jpg","null","gym","H","non-repeat","null","31","stimuli/gym_67.jpg","","","","",""
"","","","","","image-keyboard-response","40","2.0.0","48744","plhygmgtf28","kangaroo","null","stimuli/playground_14.jpg","null","playground","I","non-repeat","null","32","stimuli/playground_14.jpg","","","","",""
"","","","","","image-keyboard-response","41","2.0.0","49748","plhygmgtf28","kangaroo","null","stimuli/woods_68.jpg","null","woods","A","non-repeat","null","33","stimuli/woods_68.jpg","","","","",""
"","","","","","image-keyboard-response","42","2.0.0","50751","plhygmgtf28","kangaroo","417","stimuli/woods_68.jpg"," ","woods","A","repeat"," ","33","","","","","",""
"","","","","","image-keyboard-response","43","2.0.0","51756","plhygmgtf28","kangaroo","null","stimuli/bathroom_26.jpg","null","bathroom","B","non-repeat","null","34","stimuli/bathroom_26.jpg","","","","",""
"","","","","","image-keyboard-response","44","2.0.0","52759","plhygmgtf28","kangaroo","null","stimuli/coast_55.jpg","null","coast","C","non-repeat","null","35","stimuli/coast_55.jpg","","","","",""
"","","","","","image-keyboard-response","45","2.0.0","53763","plhygmgtf28","kangaroo","null","stimuli/street_19.jpg","null","street","D","non-repeat","null","36","stimuli/street_19.jpg","","","","",""
"","","","","","image-keyboard-response","46","2.0.0","54767","plhygmgtf28","kangaroo","null","stimuli/kitchen_42.jpg","null","kitchen","E","non-repeat","null","37","stimuli/kitchen_42.jpg","","","","",""
"","","","","","image-keyboard-response","47","2.0.0","55771","plhygmgtf28","kangaroo","null","stimuli/stream_5.jpg","null","stream","F","non-repeat","null","38","stimuli/stream_5.jpg","","","","",""
"","","","","","image-keyboard-response","48","2.0.0","56775","plhygmgtf28","kangaroo","null","stimuli/desert_17.jpg","null","desert","J","non-repeat","null","39","stimuli/desert_17.jpg","","","","",""
"","","","","","image-keyboard-response","49","2.0.0","57779","plhygmgtf28","kangaroo","null","stimuli/bar_9.jpg","null","bar","K","non-repeat","null","40","stimuli/bar_9.jpg","","","","",""
"","","","","","image-keyboard-response","50","2.0.0","58783","plhygmgtf28","kangaroo","null","stimuli/bridge_8.jpg","null","bridge","L","non-repeat","null","41","stimuli/bridge_8.jpg","","","","",""
"","","","","","image-keyboard-response","51","2.0.0","59787","plhygmgtf28","kangaroo","null","stimuli/street_19.jpg","null","street","D","non-repeat","null","42","stimuli/street_19.jpg","","","","",""
"","","","","","image-keyboard-response","52","2.0.0","60792","plhygmgtf28","kangaroo","null","stimuli/kitchen_42.jpg","null","kitchen","E","non-repeat","null","43","stimuli/kitchen_42.jpg","","","","",""
"","","","","","image-keyboard-response","53","2.0.0","61796","plhygmgtf28","kangaroo","null","stimuli/stream_5.jpg","null","stream","F","non-repeat","null","44","stimuli/stream_5.jpg","","","","",""
"","","","","","image-keyboard-response","54","2.0.0","62799","plhygmgtf28","kangaroo","null","stimuli/desert_17.jpg","null","desert","J","non-repeat","null","45","stimuli/desert_17.jpg","","","","",""
"","","","","","image-keyboard-response","55","2.0.0","63803","plhygmgtf28","kangaroo","521","stimuli/desert_17.jpg"," ","desert","J","repeat"," ","45","","","","","",""
"","","","","","image-keyboard-response","56","2.0.0","64807","plhygmgtf28","kangaroo","null","stimuli/bar_9.jpg","null","bar","K","non-repeat","null","46","stimuli/bar_9.jpg","","","","",""
"","","","","","image-keyboard-response","57","2.0.0","65812","plhygmgtf28","kangaroo","null","stimuli/bridge_8.jpg","null","bridge","L","non-repeat","null","47","stimuli/bridge_8.jpg","","","","",""
"","","","","","image-keyboard-response","58","2.0.0","66816","plhygmgtf28","kangaroo","null","stimuli/street_19.jpg","null","street","D","non-repeat","null","48","stimuli/street_19.jpg","","","","",""
"","","","","","image-keyboard-response","59","2.0.0","67820","plhygmgtf28","kangaroo","null","stimuli/street_19.jpg","null","street","D","repeat"," ","48","","","","","",""
"","","","","","image-keyboard-response","60","2.0.0","68825","plhygmgtf28","kangaroo","173","stimuli/kitchen_42.jpg"," ","kitchen","E","non-repeat","null","49","stimuli/kitchen_42.jpg","","","","",""
"","","","","","image-keyboard-response","61","2.0.0","69829","plhygmgtf28","kangaroo","null","stimuli/stream_5.jpg","null","stream","F","non-repeat","null","50","stimuli/stream_5.jpg","","","","",""
"","","","","","image-keyboard-response","62","2.0.0","70832","plhygmgtf28","kangaroo","null","stimuli/desert_17.jpg","null","desert","J","non-repeat","null","51","stimuli/desert_17.jpg","","","","",""
"","","","","","image-keyboard-response","63","2.0.0","71836","plhygmgtf28","kangaroo","null","stimuli/bar_9.jpg","null","bar","K","non-repeat","null","52","stimuli/bar_9.jpg","","","","",""
"","","","","","image-keyboard-response","64","2.0.0","72839","plhygmgtf28","kangaroo","null","stimuli/bridge_8.jpg","null","bridge","L","non-repeat","null","53","stimuli/bridge_8.jpg","","","","",""
"","","","","","image-keyboard-response","65","2.0.0","73844","plhygmgtf28","kangaroo","null","stimuli/street_19.jpg","null","street","D","non-repeat","null","54","stimuli/street_19.jpg","","","","",""
"","","","","","image-keyboard-response","66","2.0.0","74848","plhygmgtf28","kangaroo","null","stimuli/kitchen_42.jpg","null","kitchen","E","non-repeat","null","55","stimuli/kitchen_42.jpg","","","","",""
"","","","","","image-keyboard-response","67","2.0.0","75852","plhygmgtf28","kangaroo","null","stimuli/stream_5.jpg","null","stream","F","non-repeat","null","56","stimuli/stream_5.jpg","","","","",""
"","","","","","image-keyboard-response","68","2.0.0","76856","plhygmgtf28","kangaroo","null","stimuli/field_59.jpg","null","field","G","non-repeat","null","57","stimuli/field_59.jpg","","","","",""
"","","","","","image-keyboard-response","69","2.0.0","77861","plhygmgtf28","kangaroo","null","stimuli/gym_67.jpg","null","gym","H","non-repeat","null","58","stimuli/gym_67.jpg","","","","",""
"","","","","","image-keyboard-response","70","2.0.0","78865","plhygmgtf28","kangaroo","null","stimuli/playground_14.jpg","null","playground","I","non-repeat","null","59","stimuli/playground_14.jpg","","","","",""
"","","","","","image-keyboard-response","71","2.0.0","79869","plhygmgtf28","kangaroo","null","stimuli/desert_17.jpg","null","desert","J","non-repeat","null","60","stimuli/desert_17.jpg","","","","",""
"","","","","","image-keyboard-response","72","2.0.0","80874","plhygmgtf28","kangaroo","null","stimuli/bar_9.jpg","null","bar","K","non-repeat","null","61","stimuli/bar_9.jpg","","","","",""
"","","","","","image-keyboard-response","73","2.0.0","81878","plhygmgtf28","kangaroo","null","stimuli/bridge_8.jpg","null","bridge","L","non-repeat","null","62","stimuli/bridge_8.jpg","","","","",""
"","","","","","image-keyboard-response","74","2.0.0","82882","plhygmgtf28","kangaroo","null","stimuli/field_59.jpg","null","field","G","non-repeat","null","63","stimuli/field_59.jpg","","","","",""
"","","","","","image-keyboard-response","75","2.0.0","83886","plhygmgtf28","kangaroo","null","stimuli/gym_67.jpg","null","gym","H","non-repeat","null","64","stimuli/gym_67.jpg","","","","",""
"","","","","","image-keyboard-response","76","2.0.0","84890","plhygmgtf28","kangaroo","null","stimuli/playground_14.jpg","null","playground","I","non-repeat","null","65","stimuli/playground_14.jpg","","","","",""
"","","","","","image-keyboard-response","77","2.0.0","85894","plhygmgtf28","kangaroo","null","stimuli/desert_17.jpg","null","desert","J","non-repeat","null","66","stimuli/desert_17.jpg","","","","",""
"","","","","","image-keyboard-response","78","2.0.0","86899","plhygmgtf28","kangaroo","null","stimuli/bar_9.jpg","null","bar","K","non-repeat","null","67","stimuli/bar_9.jpg","","","","",""
"","","","","","image-keyboard-response","79","2.0.0","87903","plhygmgtf28","kangaroo","null","stimuli/bridge_8.jpg","null","bridge","L","non-repeat","null","68","stimuli/bridge_8.jpg","","","","",""
"","","","","","image-keyboard-response","80","2.0.0","88907","plhygmgtf28","kangaroo","565","stimuli/bridge_8.jpg"," ","bridge","L","repeat"," ","68","","","","","",""
"","","","","","image-keyboard-response","81","2.0.0","89910","plhygmgtf28","kangaroo","null","stimuli/field_59.jpg","null","field","G","non-repeat","null","69","stimuli/field_59.jpg","","","","",""
"","","","","","image-keyboard-response","82","2.0.0","90915","plhygmgtf28","kangaroo","null","stimuli/gym_67.jpg","null","gym","H","non-repeat","null","70","stimuli/gym_67.jpg","","","","",""
"","","","","","image-keyboard-response","83","2.0.0","91919","plhygmgtf28","kangaroo","null","stimuli/playground_14.jpg","null","playground","I","non-repeat","null","71","stimuli/playground_14.jpg","","","","",""
"","","","","","image-keyboard-response","84","2.0.0","92923","plhygmgtf28","kangaroo","null","stimuli/street_19.jpg","null","street","D","non-repeat","null","72","stimuli/street_19.jpg","","","","",""
"","","","","","image-keyboard-response","85","2.0.0","93928","plhygmgtf28","kangaroo","null","stimuli/kitchen_42.jpg","null","kitchen","E","non-repeat","null","73","stimuli/kitchen_42.jpg","","","","",""
"","","","","","image-keyboard-response","86","2.0.0","94932","plhygmgtf28","kangaroo","null","stimuli/stream_5.jpg","null","stream","F","non-repeat","null","74","stimuli/stream_5.jpg","","","","",""
"","","","","","image-keyboard-response","87","2.0.0","95936","plhygmgtf28","kangaroo","null","stimuli/field_59.jpg","null","field","G","non-repeat","null","75","stimuli/field_59.jpg","","","","",""
"","","","","","image-keyboard-response","88","2.0.0","96940","plhygmgtf28","kangaroo","null","stimuli/gym_67.jpg","null","gym","H","non-repeat","null","76","stimuli/gym_67.jpg","","","","",""
"","","","","","image-keyboard-response","89","2.0.0","97945","plhygmgtf28","kangaroo","null","stimuli/playground_14.jpg","null","playground","I","non-repeat","null","77","stimuli/playground_14.jpg","","","","",""
"","","","","","image-keyboard-response","90","2.0.0","98949","plhygmgtf28","kangaroo","null","stimuli/woods_68.jpg","null","woods","A","non-repeat","null","78","stimuli/woods_68.jpg","","","","",""
"","","","","","image-keyboard-response","91","2.0.0","99953","plhygmgtf28","kangaroo","null","stimuli/bathroom_26.jpg","null","bathroom","B","non-repeat","null","79","stimuli/bathroom_26.jpg","","","","",""
"","","","","","image-keyboard-response","92","2.0.0","100957","plhygmgtf28","kangaroo","null","stimuli/coast_55.jpg","null","coast","C","non-repeat","null","80","stimuli/coast_55.jpg","","","","",""
"","","","","","image-keyboard-response","93","2.0.0","101961","plhygmgtf28","kangaroo","551","stimuli/coast_55.jpg"," ","coast","C","repeat"," ","80","","","","","",""
"","","","","","image-keyboard-response","94","2.0.0","102966","plhygmgtf28","kangaroo","null","stimuli/field_59.jpg","null","field","G","non-repeat","null","81","stimuli/field_59.jpg","","","","",""
"","","","","","image-keyboard-response","95","2.0.0","103970","plhygmgtf28","kangaroo","null","stimuli/gym_67.jpg","null","gym","H","non-repeat","null","82","stimuli/gym_67.jpg","","","","",""
"","","","","","image-keyboard-response","96","2.0.0","104975","plhygmgtf28","kangaroo","null","stimuli/playground_14.jpg","null","playground","I","non-repeat","null","83","stimuli/playground_14.jpg","","","","",""
"","","","","","image-keyboard-response","97","2.0.0","105979","plhygmgtf28","kangaroo","null","stimuli/street_19.jpg","null","street","D","non-repeat","null","84","stimuli/street_19.jpg","","","","",""
"","","","","","image-keyboard-response","98","2.0.0","106983","plhygmgtf28","kangaroo","null","stimuli/kitchen_42.jpg","null","kitchen","E","non-repeat","null","85","stimuli/kitchen_42.jpg","","","","",""
"","","","","","image-keyboard-response","99","2.0.0","107988","plhygmgtf28","kangaroo","null","stimuli/stream_5.jpg","null","stream","F","non-repeat","null","86","stimuli/stream_5.jpg","","","","",""
"","","","","","image-keyboard-response","100","2.0.0","108991","plhygmgtf28","kangaroo","null","stimuli/woods_68.jpg","null","woods","A","non-repeat","null","87","stimuli/woods_68.jpg","","","","",""
"","","","","","image-keyboard-response","101","2.0.0","109994","plhygmgtf28","kangaroo","null","stimuli/bathroom_26.jpg","null","bathroom","B","non-repeat","null","88","stimuli/bathroom_26.jpg","","","","",""
"","","","","","image-keyboard-response","102","2.0.0","110997","plhygmgtf28","kangaroo","null","stimuli/coast_55.jpg","null","coast","C","non-repeat","null","89","stimuli/coast_55.jpg","","","","",""
"","","","","","image-keyboard-response","103","2.0.0","112001","plhygmgtf28","kangaroo","null","stimuli/street_19.jpg","null","street","D","non-repeat","null","90","stimuli/street_19.jpg","","","","",""
"","","","","","image-keyboard-response","104","2.0.0","113005","plhygmgtf28","kangaroo","null","stimuli/kitchen_42.jpg","null","kitchen","E","non-repeat","null","91","stimuli/kitchen_42.jpg","","","","",""
"","","","","","image-keyboard-response","105","2.0.0","114010","plhygmgtf28","kangaroo","null","stimuli/stream_5.jpg","null","stream","F","non-repeat","null","92","stimuli/stream_5.jpg","","","","",""
"","","","","","image-keyboard-response","106","2.0.0","115014","plhygmgtf28","kangaroo","null","stimuli/woods_68.jpg","null","woods","A","non-repeat","null","93","stimuli/woods_68.jpg","","","","",""
"","","","","","image-keyboard-response","107","2.0.0","116018","plhygmgtf28","kangaroo","651","stimuli/woods_68.jpg"," ","woods","A","repeat"," ","93","","","","","",""
"","","","","","image-keyboard-response","108","2.0.0","117022","plhygmgtf28","kangaroo","null","stimuli/bathroom_26.jpg","null","bathroom","B","non-repeat","null","94","stimuli/bathroom_26.jpg","","","","",""
"","","","","","image-keyboard-response","109","2.0.0","118031","plhygmgtf28","kangaroo","null","stimuli/coast_55.jpg","null","coast","C","non-repeat","null","95","stimuli/coast_55.jpg","","","","",""
"","","","","","image-keyboard-response","110","2.0.0","119035","plhygmgtf28","kangaroo","null","stimuli/field_59.jpg","null","field","G","non-repeat","null","96","stimuli/field_59.jpg","","","","",""
"","","","","","image-keyboard-response","111","2.0.0","120039","plhygmgtf28","kangaroo","null","stimuli/gym_67.jpg","null","gym","H","non-repeat","null","97","stimuli/gym_67.jpg","","","","",""
"","","","","","image-keyboard-response","112","2.0.0","121043","plhygmgtf28","kangaroo","null","stimuli/playground_14.jpg","null","playground","I","non-repeat","null","98","stimuli/playground_14.jpg","","","","",""
"","","","","","image-keyboard-response","113","2.0.0","122048","plhygmgtf28","kangaroo","null","stimuli/street_19.jpg","null","street","D","non-repeat","null","99","stimuli/street_19.jpg","","","","",""
"","","","","","image-keyboard-response","114","2.0.0","123051","plhygmgtf28","kangaroo","703","stimuli/street_19.jpg"," ","street","D","repeat"," ","99","","","","","",""
"","","","","","image-keyboard-response","115","2.0.0","124056","plhygmgtf28","kangaroo","null","stimuli/kitchen_42.jpg","null","kitchen","E","non-repeat","null","100","stimuli/kitchen_42.jpg","","","","",""
"","","","","","image-keyboard-response","116","2.0.0","125059","plhygmgtf28","kangaroo","null","stimuli/stream_5.jpg","null","stream","F","non-repeat","null","101","stimuli/stream_5.jpg","","","","",""
"","","","","","image-keyboard-response","117","2.0.0","126063","plhygmgtf28","kangaroo","null","stimuli/desert_17.jpg","null","desert","J","non-repeat","null","102","stimuli/desert_17.jpg","","","","",""
"","","","","","image-keyboard-response","118","2.0.0","127067","plhygmgtf28","kangaroo","null","stimuli/bar_9.jpg","null","bar","K","non-repeat","null","103","stimuli/bar_9.jpg","","","","",""
"","","","","","image-keyboard-response","119","2.0.0","128071","plhygmgtf28","kangaroo","null","stimuli/bridge_8.jpg","null","bridge","L","non-repeat","null","104","stimuli/bridge_8.jpg","","","","",""
"","","","","","image-keyboard-response","120","2.0.0","129075","plhygmgtf28","kangaroo","null","stimuli/street_19.jpg","null","street","D","non-repeat","null","105","stimuli/street_19.jpg","","","","",""
"","","","","","image-keyboard-response","121","2.0.0","130079","plhygmgtf28","kangaroo","null","stimuli/kitchen_42.jpg","null","kitchen","E","non-repeat","null","106","stimuli/kitchen_42.jpg","","","","",""
"","","","","","image-keyboard-response","122","2.0.0","131083","plhygmgtf28","kangaroo","null","stimuli/stream_5.jpg","null","stream","F","non-repeat","null","107","stimuli/stream_5.jpg","","","","",""
"","","","","","image-keyboard-response","123","2.0.0","132087","plhygmgtf28","kangaroo","null","stimuli/field_59.jpg","null","field","G","non-repeat","null","108","stimuli/field_59.jpg","","","","",""
"","","","","","image-keyboard-response","124","2.0.0","133091","plhygmgtf28","kangaroo","null","stimuli/gym_67.jpg","null","gym","H","non-repeat","null","109","stimuli/gym_67.jpg","","","","",""
"","","","","","image-keyboard-response","125","2.0.0","134095","plhygmgtf28","kangaroo","null","stimuli/playground_14.jpg","null","playground","I","non-repeat","null","110","stimuli/playground_14.jpg","","","","",""
"","","","","","image-keyboard-response","126","2.0.0","135098","plhygmgtf28","kangaroo","null","stimuli/woods_68.jpg","null","woods","A","non-repeat","null","111","stimuli/woods_68.jpg","","","","",""
"","","","","","image-keyboard-response","127","2.0.0","136102","plhygmgtf28","kangaroo","null","stimuli/bathroom_26.jpg","null","bathroom","B","non-repeat","null","112","stimuli/bathroom_26.jpg","","","","",""
"","","","","","image-keyboard-response","128","2.0.0","137105","plhygmgtf28","kangaroo","null","stimuli/coast_55.jpg","null","coast","C","non-repeat","null","113","stimuli/coast_55.jpg","","","","",""
"","","","","","image-keyboard-response","129","2.0.0","138109","plhygmgtf28","kangaroo","null","stimuli/street_19.jpg","null","street","D","non-repeat","null","114","stimuli/street_19.jpg","","","","",""
"","","","","","image-keyboard-response","130","2.0.0","139113","plhygmgtf28","kangaroo","null","stimuli/kitchen_42.jpg","null","kitchen","E","non-repeat","null","115","stimuli/kitchen_42.jpg","","","","",""
"","","","","","image-keyboard-response","131","2.0.0","140118","plhygmgtf28","kangaroo","null","stimuli/stream_5.jpg","null","stream","F","non-repeat","null","116","stimuli/stream_5.jpg","","","","",""
"","","","","","image-keyboard-response","132","2.0.0","141121","plhygmgtf28","kangaroo","null","stimuli/desert_17.jpg","null","desert","J","non-repeat","null","117","stimuli/desert_17.jpg","","","","",""
"","","","","","image-keyboard-response","133","2.0.0","142125","plhygmgtf28","kangaroo","415","stimuli/desert_17.jpg"," ","desert","J","repeat"," ","117","","","","","",""
"","","","","","image-keyboard-response","134","2.0.0","143129","plhygmgtf28","kangaroo","null","stimuli/bar_9.jpg","null","bar","K","non-repeat","null","118","stimuli/bar_9.jpg","","","","",""
"","","","","","image-keyboard-response","135","2.0.0","144133","plhygmgtf28","kangaroo","null","stimuli/bridge_8.jpg","null","bridge","L","non-repeat","null","119","stimuli/bridge_8.jpg","","","","",""
"","","","","","image-keyboard-response","136","2.0.0","145137","plhygmgtf28","kangaroo","null","stimuli/woods_68.jpg","null","woods","A","non-repeat","null","120","stimuli/woods_68.jpg","","","","",""
"","","","","","image-keyboard-response","137","2.0.0","146140","plhygmgtf28","kangaroo","null","stimuli/bathroom_26.jpg","null","bathroom","B","non-repeat","null","121","stimuli/bathroom_26.jpg","","","","",""
"","","","","","image-keyboard-response","138","2.0.0","147143","plhygmgtf28","kangaroo","null","stimuli/coast_55.jpg","null","coast","C","non-repeat","null","122","stimuli/coast_55.jpg","","","","",""
"","","","","","image-keyboard-response","139","2.0.0","148147","plhygmgtf28","kangaroo","null","stimuli/street_19.jpg","null","street","D","non-repeat","null","123","stimuli/street_19.jpg","","","","",""
"","","","","","image-keyboard-response","140","2.0.0","149152","plhygmgtf28","kangaroo","null","stimuli/kitchen_42.jpg","null","kitchen","E","non-repeat","null","124","stimuli/kitchen_42.jpg","","","","",""
"","","","","","image-keyboard-response","141","2.0.0","150155","plhygmgtf28","kangaroo","null","stimuli/stream_5.jpg","null","stream","F","non-repeat","null","125","stimuli/stream_5.jpg","","","","",""
"","","","","","image-keyboard-response","142","2.0.0","151159","plhygmgtf28","kangaroo","null","stimuli/desert_17.jpg","null","desert","J","non-repeat","null","126","stimuli/desert_17.jpg","","","","",""
"","","","","","image-keyboard-response","143","2.0.0","152164","plhygmgtf28","kangaroo","null","stimuli/bar_9.jpg","null","bar","K","non-repeat","null","127","stimuli/bar_9.jpg","","","","",""
"","","","","","image-keyboard-response","144","2.0.0","153167","plhygmgtf28","kangaroo","null","stimuli/bridge_8.jpg","null","bridge","L","non-repeat","null","128","stimuli/bridge_8.jpg","","","","",""
"","","","","","image-keyboard-response","145","2.0.0","154172","plhygmgtf28","kangaroo","null","stimuli/field_59.jpg","null","field","G","non-repeat","null","129","stimuli/field_59.jpg","","","","",""
"","","","","","image-keyboard-response","146","2.0.0","155175","plhygmgtf28","kangaroo","null","stimuli/gym_67.jpg","null","gym","H","non-repeat","null","130","stimuli/gym_67.jpg","","","","",""
"","","","","","image-keyboard-response","147","2.0.0","156179","plhygmgtf28","kangaroo","null","stimuli/playground_14.jpg","null","playground","I","non-repeat","null","131","stimuli/playground_14.jpg","","","","",""
"","","","","","image-keyboard-response","148","2.0.0","157183","plhygmgtf28","kangaroo","421","stimuli/playground_14.jpg"," ","playground","I","repeat"," ","131","","","","","",""
"","","","","","image-keyboard-response","149","2.0.0","158188","plhygmgtf28","kangaroo","null","stimuli/woods_68.jpg","null","woods","A","non-repeat","null","132","stimuli/woods_68.jpg","","","","",""
"","","","","","image-keyboard-response","150","2.0.0","159191","plhygmgtf28","kangaroo","null","stimuli/bathroom_26.jpg","null","bathroom","B","non-repeat","null","133","stimuli/bathroom_26.jpg","","","","",""
"","","","","","image-keyboard-response","151","2.0.0","160195","plhygmgtf28","kangaroo","null","stimuli/coast_55.jpg","null","coast","C","non-repeat","null","134","stimuli/coast_55.jpg","","","","",""
"","","","","","image-keyboard-response","152","2.0.0","161199","plhygmgtf28","kangaroo","null","stimuli/field_59.jpg","null","field","G","non-repeat","null","135","stimuli/field_59.jpg","","","","",""
"","","","","","image-keyboard-response","153","2.0.0","162203","plhygmgtf28","kangaroo","null","stimuli/gym_67.jpg","null","gym","H","non-repeat","null","136","stimuli/gym_67.jpg","","","","",""
"","","","","","image-keyboard-response","154","2.0.0","163208","plhygmgtf28","kangaroo","null","stimuli/playground_14.jpg","null","playground","I","non-repeat","null","137","stimuli/playground_14.jpg","","","","",""
"","","","","","image-keyboard-response","155","2.0.0","164212","plhygmgtf28","kangaroo","649","stimuli/playground_14.jpg"," ","playground","I","repeat"," ","137","","","","","",""
"","","","","","image-keyboard-response","156","2.0.0","165216","plhygmgtf28","kangaroo","null","stimuli/street_19.jpg","null","street","D","non-repeat","null","138","stimuli/street_19.jpg","","","","",""
"","","","","","image-keyboard-response","157","2.0.0","166219","plhygmgtf28","kangaroo","564","stimuli/street_19.jpg"," ","street","D","repeat"," ","138","","","","","",""
"","","","","","image-keyboard-response","158","2.0.0","167223","plhygmgtf28","kangaroo","null","stimuli/kitchen_42.jpg","null","kitchen","E","non-repeat","null","139","stimuli/kitchen_42.jpg","","","","",""
"","","","","","image-keyboard-response","159","2.0.0","168227","plhygmgtf28","kangaroo","null","stimuli/stream_5.jpg","null","stream","F","non-repeat","null","140","stimuli/stream_5.jpg","","","","",""
"","","","","","image-keyboard-response","160","2.0.0","169231","plhygmgtf28","kangaroo","null","stimuli/stream_5.jpg","null","stream","F","repeat"," ","140","","","","","",""
"","","","","","image-keyboard-response","161","2.0.0","170235","plhygmgtf28","kangaroo","null","stimuli/field_59.jpg","null","field","G","non-repeat","null","141","stimuli/field_59.jpg","","","","",""
"","","","","","image-keyboard-response","162","2.0.0","171239","plhygmgtf28","kangaroo","null","stimuli/gym_67.jpg","null","gym","H","non-repeat","null","142","stimuli/gym_67.jpg","","","","",""
"","","","","","image-keyboard-response","163","2.0.0","172243","plhygmgtf28","kangaroo","null","stimuli/playground_14.jpg","null","playground","I","non-repeat","null","143","stimuli/playground_14.jpg","","","","",""
"","","","","","image-keyboard-response","164","2.0.0","173247","plhygmgtf28","kangaroo","null","stimuli/desert_17.jpg","null","desert","J","non-repeat","null","144","stimuli/desert_17.jpg","","","","",""
"","","","","","image-keyboard-response","165","2.0.0","174251","plhygmgtf28","kangaroo","null","stimuli/bar_9.jpg","null","bar","K","non-repeat","null","145","stimuli/bar_9.jpg","","","","",""
"","","","","","image-keyboard-response","166","2.0.0","175255","plhygmgtf28","kangaroo","null","stimuli/bridge_8.jpg","null","bridge","L","non-repeat","null","146","stimuli/bridge_8.jpg","","","","",""
"","","","","","image-keyboard-response","167","2.0.0","176259","plhygmgtf28","kangaroo","null","stimuli/street_19.jpg","null","street","D","non-repeat","null","147","stimuli/street_19.jpg","","","","",""
"","","","","","image-keyboard-response","168","2.0.0","177263","plhygmgtf28","kangaroo","461","stimuli/street_19.jpg"," ","street","D","repeat"," ","147","","","","","",""
"","","","","","image-keyboard-response","169","2.0.0","178267","plhygmgtf28","kangaroo","null","stimuli/kitchen_42.jpg","null","kitchen","E","non-repeat","null","148","stimuli/kitchen_42.jpg","","","","",""
"","","","","","image-keyboard-response","170","2.0.0","179271","plhygmgtf28","kangaroo","null","stimuli/stream_5.jpg","null","stream","F","non-repeat","null","149","stimuli/stream_5.jpg","","","","",""
"","","","","","image-keyboard-response","171","2.0.0","180275","plhygmgtf28","kangaroo","null","stimuli/desert_17.jpg","null","desert","J","non-repeat","null","150","stimuli/desert_17.jpg","","","","",""
"","","","","","image-keyboard-response","172","2.0.0","181279","plhygmgtf28","kangaroo","411","stimuli/desert_17.jpg"," ","desert","J","repeat"," ","150","","","","","",""
"","","","","","image-keyboard-response","173","2.0.0","182283","plhygmgtf28","kangaroo","null","stimuli/bar_9.jpg","null","bar","K","non-repeat","null","151","stimuli/bar_9.jpg","","","","",""
"","","","","","image-keyboard-response","174","2.0.0","183287","plhygmgtf28","kangaroo","null","stimuli/bridge_8.jpg","null","bridge","L","non-repeat","null","152","stimuli/bridge_8.jpg","","","","",""
"","","","","","image-keyboard-response","175","2.0.0","184291","plhygmgtf28","kangaroo","null","stimuli/street_19.jpg","null","street","D","non-repeat","null","153","stimuli/street_19.jpg","","","","",""
"","","","","","image-keyboard-response","176","2.0.0","185295","plhygmgtf28","kangaroo","null","stimuli/kitchen_42.jpg","null","kitchen","E","non-repeat","null","154","stimuli/kitchen_42.jpg","","","","",""
"","","","","","image-keyboard-response","177","2.0.0","186299","plhygmgtf28","kangaroo","null","stimuli/stream_5.jpg","null","stream","F","non-repeat","null","155","stimuli/stream_5.jpg","","","","",""
"","","","","","image-keyboard-response","178","2.0.0","187303","plhygmgtf28","kangaroo","418","stimuli/stream_5.jpg"," ","stream","F","repeat"," ","155","","","","","",""
"","","","","","image-keyboard-response","179","2.0.0","188306","plhygmgtf28","kangaroo","null","stimuli/woods_68.jpg","null","woods","A","non-repeat","null","156","stimuli/woods_68.jpg","","","","",""
"","","","","","image-keyboard-response","180","2.0.0","189311","plhygmgtf28","kangaroo","null","stimuli/bathroom_26.jpg","null","bathroom","B","non-repeat","null","157","stimuli/bathroom_26.jpg","","","","",""
"","","","","","image-keyboard-response","181","2.0.0","190315","plhygmgtf28","kangaroo","null","stimuli/coast_55.jpg","null","coast","C","non-repeat","null","158","stimuli/coast_55.jpg","","","","",""
"","","","","","image-keyboard-response","182","2.0.0","191319","plhygmgtf28","kangaroo","null","stimuli/field_59.jpg","null","field","G","non-repeat","null","159","stimuli/field_59.jpg","","","","",""
"","","","","","image-keyboard-response","183","2.0.0","192323","plhygmgtf28","kangaroo","null","stimuli/gym_67.jpg","null","gym","H","non-repeat","null","160","stimuli/gym_67.jpg","","","","",""
"","","","","","image-keyboard-response","184","2.0.0","193328","plhygmgtf28","kangaroo","null","stimuli/playground_14.jpg","null","playground","I","non-repeat","null","161","stimuli/playground_14.jpg","","","","",""
"","","","","","image-keyboard-response","185","2.0.0","194331","plhygmgtf28","kangaroo","null","stimuli/woods_68.jpg","null","woods","A","non-repeat","null","162","stimuli/woods_68.jpg","","","","",""
"","","","","","image-keyboard-response","186","2.0.0","195335","plhygmgtf28","kangaroo","null","stimuli/bathroom_26.jpg","null","bathroom","B","non-repeat","null","163","stimuli/bathroom_26.jpg","","","","",""
"","","","","","image-keyboard-response","187","2.0.0","196340","plhygmgtf28","kangaroo","null","stimuli/coast_55.jpg","null","coast","C","non-repeat","null","164","stimuli/coast_55.jpg","","","","",""
"","","","","","image-keyboard-response","188","2.0.0","197344","plhygmgtf28","kangaroo","null","stimuli/street_19.jpg","null","street","D","non-repeat","null","165","stimuli/street_19.jpg","","","","",""
"","","","","","image-keyboard-response","189","2.0.0","198348","plhygmgtf28","kangaroo","null","stimuli/kitchen_42.jpg","null","kitchen","E","non-repeat","null","166","stimuli/kitchen_42.jpg","","","","",""
"","","","","","image-keyboard-response","190","2.0.0","199352","plhygmgtf28","kangaroo","null","stimuli/stream_5.jpg","null","stream","F","non-repeat","null","167","stimuli/stream_5.jpg","","","","",""
"","","","","","image-keyboard-response","191","2.0.0","200356","plhygmgtf28","kangaroo","null","stimuli/field_59.jpg","null","field","G","non-repeat","null","168","stimuli/field_59.jpg","","","","",""
"","","","","","image-keyboard-response","192","2.0.0","201360","plhygmgtf28","kangaroo","null","stimuli/gym_67.jpg","null","gym","H","non-repeat","null","169","stimuli/gym_67.jpg","","","","",""
"","","","","","image-keyboard-response","193","2.0.0","202364","plhygmgtf28","kangaroo","null","stimuli/playground_14.jpg","null","playground","I","non-repeat","null","170","stimuli/playground_14.jpg","","","","",""
"","","","","","image-keyboard-response","194","2.0.0","203368","plhygmgtf28","kangaroo","null","stimuli/street_19.jpg","null","street","D","non-repeat","null","171","stimuli/street_19.jpg","","","","",""
"","","","","","image-keyboard-response","195","2.0.0","204376","plhygmgtf28","kangaroo","null","stimuli/kitchen_42.jpg","null","kitchen","E","non-repeat","null","172","stimuli/kitchen_42.jpg","","","","",""
"","","","","","image-keyboard-response","196","2.0.0","205381","plhygmgtf28","kangaroo","null","stimuli/stream_5.jpg","null","stream","F","non-repeat","null","173","stimuli/stream_5.jpg","","","","",""
"","","","","","image-keyboard-response","197","2.0.0","206385","plhygmgtf28","kangaroo","null","stimuli/field_59.jpg","null","field","G","non-repeat","null","174","stimuli/field_59.jpg","","","","",""
"","","","","","image-keyboard-response","198","2.0.0","207388","plhygmgtf28","kangaroo","null","stimuli/gym_67.jpg","null","gym","H","non-repeat","null","175","stimuli/gym_67.jpg","","","","",""
"","","","","","image-keyboard-response","199","2.0.0","208392","plhygmgtf28","kangaroo","null","stimuli/playground_14.jpg","null","playground","I","non-repeat","null","176","stimuli/playground_14.jpg","","","","",""
"","","","","","image-keyboard-response","200","2.0.0","209396","plhygmgtf28","kangaroo","null","stimuli/desert_17.jpg","null","desert","J","non-repeat","null","177","stimuli/desert_17.jpg","","","","",""
"","","","","","image-keyboard-response","201","2.0.0","210401","plhygmgtf28","kangaroo","null","stimuli/bar_9.jpg","null","bar","K","non-repeat","null","178","stimuli/bar_9.jpg","","","","",""
"","","","","","image-keyboard-response","202","2.0.0","211405","plhygmgtf28","kangaroo","null","stimuli/bridge_8.jpg","null","bridge","L","non-repeat","null","179","stimuli/bridge_8.jpg","","","","",""
"","","","","","image-keyboard-response","203","2.0.0","212409","plhygmgtf28","kangaroo","null","stimuli/woods_68.jpg","null","woods","A","non-repeat","null","180","stimuli/woods_68.jpg","","","","",""
"","","","","","image-keyboard-response","204","2.0.0","213413","plhygmgtf28","kangaroo","null","stimuli/bathroom_26.jpg","null","bathroom","B","non-repeat","null","181","stimuli/bathroom_26.jpg","","","","",""
"","","","","","image-keyboard-response","205","2.0.0","214417","plhygmgtf28","kangaroo","null","stimuli/coast_55.jpg","null","coast","C","non-repeat","null","182","stimuli/coast_55.jpg","","","","",""
"","","","","","image-keyboard-response","206","2.0.0","215421","plhygmgtf28","kangaroo","null","stimuli/desert_17.jpg","null","desert","J","non-repeat","null","183","stimuli/desert_17.jpg","","","","",""
"","","","","","image-keyboard-response","207","2.0.0","216425","plhygmgtf28","kangaroo","null","stimuli/bar_9.jpg","null","bar","K","non-repeat","null","184","stimuli/bar_9.jpg","","","","",""
"","","","","","image-keyboard-response","208","2.0.0","217429","plhygmgtf28","kangaroo","null","stimuli/bridge_8.jpg","null","bridge","L","non-repeat","null","185","stimuli/bridge_8.jpg","","","","",""
"","","","","","image-keyboard-response","209","2.0.0","218433","plhygmgtf28","kangaroo","null","stimuli/woods_68.jpg","null","woods","A","non-repeat","null","186","stimuli/woods_68.jpg","","","","",""
"","","","","","image-keyboard-response","210","2.0.0","219437","plhygmgtf28","kangaroo","null","stimuli/bathroom_26.jpg","null","bathroom","B","non-repeat","null","187","stimuli/bathroom_26.jpg","","","","",""
"","","","","","image-keyboard-response","211","2.0.0","220441","plhygmgtf28","kangaroo","null","stimuli/coast_55.jpg","null","coast","C","non-repeat","null","188","stimuli/coast_55.jpg","","","","",""
"","","","","","image-keyboard-response","212","2.0.0","221445","plhygmgtf28","kangaroo","null","stimuli/street_19.jpg","null","street","D","non-repeat","null","189","stimuli/street_19.jpg","","","","",""
"","","","","","image-keyboard-response","213","2.0.0","222448","plhygmgtf28","kangaroo","null","stimuli/kitchen_42.jpg","null","kitchen","E","non-repeat","null","190","stimuli/kitchen_42.jpg","","","","",""
"","","","","","image-keyboard-response","214","2.0.0","223453","plhygmgtf28","kangaroo","null","stimuli/stream_5.jpg","null","stream","F","non-repeat","null","191","stimuli/stream_5.jpg","","","","",""
"","","","","","image-keyboard-response","215","2.0.0","224457","plhygmgtf28","kangaroo","681","stimuli/stream_5.jpg"," ","stream","F","repeat"," ","191","","","","","",""
"","","","","","image-keyboard-response","216","2.0.0","225461","plhygmgtf28","kangaroo","null","stimuli/woods_68.jpg","null","woods","A","non-repeat","null","192","stimuli/woods_68.jpg","","","","",""
"","","","","","image-keyboard-response","217","2.0.0","226465","plhygmgtf28","kangaroo","547","stimuli/woods_68.jpg"," ","woods","A","repeat"," ","192","","","","","",""
"","","","","","image-keyboard-response","218","2.0.0","227469","plhygmgtf28","kangaroo","null","stimuli/bathroom_26.jpg","null","bathroom","B","non-repeat","null","193","stimuli/bathroom_26.jpg","","","","",""
"","","","","","image-keyboard-response","219","2.0.0","228474","plhygmgtf28","kangaroo","null","stimuli/coast_55.jpg","null","coast","C","non-repeat","null","194","stimuli/coast_55.jpg","","","","",""
"","","","","","image-keyboard-response","220","2.0.0","229478","plhygmgtf28","kangaroo","null","stimuli/street_19.jpg","null","street","D","non-repeat","null","195","stimuli/street_19.jpg","","","","",""
"","","","","","image-keyboard-response","221","2.0.0","230482","plhygmgtf28","kangaroo","null","stimuli/street_19.jpg","null","street","D","repeat"," ","195","","","","","",""
"","","","","","image-keyboard-response","222","2.0.0","231487","plhygmgtf28","kangaroo","null","stimuli/kitchen_42.jpg","null","kitchen","E","non-repeat","null","196","stimuli/kitchen_42.jpg","","","","",""
"","","","","","image-keyboard-response","223","2.0.0","232490","plhygmgtf28","kangaroo","null","stimuli/stream_5.jpg","null","stream","F","non-repeat","null","197","stimuli/stream_5.jpg","","","","",""
"","","","","","image-keyboard-response","224","2.0.0","233495","plhygmgtf28","kangaroo","null","stimuli/desert_17.jpg","null","desert","J","non-repeat","null","198","stimuli/desert_17.jpg","","","","",""
"","","","","","image-keyboard-response","225","2.0.0","234499","plhygmgtf28","kangaroo","null","stimuli/bar_9.jpg","null","bar","K","non-repeat","null","199","stimuli/bar_9.jpg","","","","",""
"","","","","","image-keyboard-response","226","2.0.0","235503","plhygmgtf28","kangaroo","null","stimuli/bridge_8.jpg","null","bridge","L","non-repeat","null","200","stimuli/bridge_8.jpg","","","","",""
"","","","","","image-keyboard-response","227","2.0.0","236507","plhygmgtf28","kangaroo","706","stimuli/bridge_8.jpg"," ","bridge","L","repeat"," ","200","","","","","",""
"","","","","","image-keyboard-response","228","2.0.0","237510","plhygmgtf28","kangaroo","null","stimuli/field_59.jpg","null","field","G","non-repeat","null","201","stimuli/field_59.jpg","","","","",""
"","","","","","image-keyboard-response","229","2.0.0","238513","plhygmgtf28","kangaroo","588","stimuli/field_59.jpg"," ","field","G","repeat"," ","201","","","","","",""
"","","","","","image-keyboard-response","230","2.0.0","239517","plhygmgtf28","kangaroo","null","stimuli/gym_67.jpg","null","gym","H","non-repeat","null","202","stimuli/gym_67.jpg","","","","",""
"","","","","","image-keyboard-response","231","2.0.0","240521","plhygmgtf28","kangaroo","null","stimuli/playground_14.jpg","null","playground","I","non-repeat","null","203","stimuli/playground_14.jpg","","","","",""
"","","","","","image-keyboard-response","232","2.0.0","241524","plhygmgtf28","kangaroo","null","stimuli/street_19.jpg","null","street","D","non-repeat","null","204","stimuli/street_19.jpg","","","","",""
"","","","","","image-keyboard-response","233","2.0.0","242528","plhygmgtf28","kangaroo","508","stimuli/street_19.jpg"," ","street","D","repeat"," ","204","","","","","",""
"","","","","","image-keyboard-response","234","2.0.0","243533","plhygmgtf28","kangaroo","null","stimuli/kitchen_42.jpg","null","kitchen","E","non-repeat","null","205","stimuli/kitchen_42.jpg","","","","",""
"","","","","","image-keyboard-response","235","2.0.0","244536","plhygmgtf28","kangaroo","null","stimuli/stream_5.jpg","null","stream","F","non-repeat","null","206","stimuli/stream_5.jpg","","","","",""
"","","","","","image-keyboard-response","236","2.0.0","245540","plhygmgtf28","kangaroo","null","stimuli/woods_68.jpg","null","woods","A","non-repeat","null","207","stimuli/woods_68.jpg","","","","",""
"","","","","","image-keyboard-response","237","2.0.0","246545","plhygmgtf28","kangaroo","null","stimuli/bathroom_26.jpg","null","bathroom","B","non-repeat","null","208","stimuli/bathroom_26.jpg","","","","",""
"","","","","","image-keyboard-response","238","2.0.0","247549","plhygmgtf28","kangaroo","null","stimuli/coast_55.jpg","null","coast","C","non-repeat","null","209","stimuli/coast_55.jpg","","","","",""
"","","","","","image-keyboard-response","239","2.0.0","248553","plhygmgtf28","kangaroo","null","stimuli/field_59.jpg","null","field","G","non-repeat","null","210","stimuli/field_59.jpg","","","","",""
"","","","","","image-keyboard-response","240","2.0.0","249556","plhygmgtf28","kangaroo","585","stimuli/field_59.jpg"," ","field","G","repeat"," ","210","","","","","",""
"","","","","","image-keyboard-response","241","2.0.0","250561","plhygmgtf28","kangaroo","null","stimuli/gym_67.jpg","null","gym","H","non-repeat","null","211","stimuli/gym_67.jpg","","","","",""
"","","","","","image-keyboard-response","242","2.0.0","251565","plhygmgtf28","kangaroo","null","stimuli/playground_14.jpg","null","playground","I","non-repeat","null","212","stimuli/playground_14.jpg","","","","",""
"","","","","","image-keyboard-response","243","2.0.0","252569","plhygmgtf28","kangaroo","665","stimuli/playground_14.jpg"," ","playground","I","repeat"," ","212","","","","","",""
"","","","","","image-keyboard-response","244","2.0.0","253573","plhygmgtf28","kangaroo","null","stimuli/street_19.jpg","null","street","D","non-repeat","null","213","stimuli/street_19.jpg","","","","",""
"","","","","","image-keyboard-response","245","2.0.0","254576","plhygmgtf28","kangaroo","null","stimuli/kitchen_42.jpg","null","kitchen","E","non-repeat","null","214","stimuli/kitchen_42.jpg","","","","",""
"","","","","","image-keyboard-response","246","2.0.0","255580","plhygmgtf28","kangaroo","null","stimuli/stream_5.jpg","null","stream","F","non-repeat","null","215","stimuli/stream_5.jpg","","","","",""
"","","","","","image-keyboard-response","247","2.0.0","256584","plhygmgtf28","kangaroo","null","stimuli/woods_68.jpg","null","woods","A","non-repeat","null","216","stimuli/woods_68.jpg","","","","",""
"","","","","","image-keyboard-response","248","2.0.0","257587","plhygmgtf28","kangaroo","458","stimuli/woods_68.jpg"," ","woods","A","repeat"," ","216","","","","","",""
"","","","","","image-keyboard-response","249","2.0.0","258591","plhygmgtf28","kangaroo","null","stimuli/bathroom_26.jpg","null","bathroom","B","non-repeat","null","217","stimuli/bathroom_26.jpg","","","","",""
"","","","","","image-keyboard-response","250","2.0.0","259595","plhygmgtf28","kangaroo","null","stimuli/coast_55.jpg","null","coast","C","non-repeat","null","218","stimuli/coast_55.jpg","","","","",""
"","","","","","image-keyboard-response","251","2.0.0","260599","plhygmgtf28","kangaroo","486","stimuli/coast_55.jpg"," ","coast","C","repeat"," ","218","","","","","",""
"","","","","","image-keyboard-response","252","2.0.0","261604","plhygmgtf28","kangaroo","null","stimuli/street_19.jpg","null","street","D","non-repeat","null","219","stimuli/street_19.jpg","","","","",""
"","","","","","image-keyboard-response","253","2.0.0","262608","plhygmgtf28","kangaroo","null","stimuli/kitchen_42.jpg","null","kitchen","E","non-repeat","null","220","stimuli/kitchen_42.jpg","","","","",""
"","","","","","image-keyboard-response","254","2.0.0","263612","plhygmgtf28","kangaroo","null","stimuli/stream_5.jpg","null","stream","F","non-repeat","null","221","stimuli/stream_5.jpg","","","","",""
"","","","","","image-keyboard-response","255","2.0.0","264615","plhygmgtf28","kangaroo","null","stimuli/field_59.jpg","null","field","G","non-repeat","null","222","stimuli/field_59.jpg","","","","",""
"","","","","","image-keyboard-response","256","2.0.0","265620","plhygmgtf28","kangaroo","null","stimuli/gym_67.jpg","null","gym","H","non-repeat","null","223","stimuli/gym_67.jpg","","","","",""
"","","","","","image-keyboard-response","257","2.0.0","266624","plhygmgtf28","kangaroo","null","stimuli/playground_14.jpg","null","playground","I","non-repeat","null","224","stimuli/playground_14.jpg","","","","",""
"","","","","","image-keyboard-response","258","2.0.0","267627","plhygmgtf28","kangaroo","500","stimuli/playground_14.jpg"," ","playground","I","repeat"," ","224","","","","","",""
"","","","","","image-keyboard-response","259","2.0.0","268632","plhygmgtf28","kangaroo","null","stimuli/street_19.jpg","null","street","D","non-repeat","null","225","stimuli/street_19.jpg","","","","",""
"","","","","","image-keyboard-response","260","2.0.0","269635","plhygmgtf28","kangaroo","null","stimuli/kitchen_42.jpg","null","kitchen","E","non-repeat","null","226","stimuli/kitchen_42.jpg","","","","",""
"","","","","","image-keyboard-response","261","2.0.0","270640","plhygmgtf28","kangaroo","null","stimuli/stream_5.jpg","null","stream","F","non-repeat","null","227","stimuli/stream_5.jpg","","","","",""
"","","","","","image-keyboard-response","262","2.0.0","271644","plhygmgtf28","kangaroo","null","stimuli/field_59.jpg","null","field","G","non-repeat","null","228","stimuli/field_59.jpg","","","","",""
"","","","","","image-keyboard-response","263","2.0.0","272648","plhygmgtf28","kangaroo","null","stimuli/gym_67.jpg","null","gym","H","non-repeat","null","229","stimuli/gym_67.jpg","","","","",""
"","","","","","image-keyboard-response","264","2.0.0","273652","plhygmgtf28","kangaroo","816","stimuli/playground_14.jpg"," ","playground","I","non-repeat","null","230","stimuli/playground_14.jpg","","","","",""
"","","","","","image-keyboard-response","265","2.0.0","274656","plhygmgtf28","kangaroo","null","stimuli/playground_14.jpg","null","playground","I","repeat"," ","230","","","","","",""
"","","","","","image-keyboard-response","266","2.0.0","275660","plhygmgtf28","kangaroo","null","stimuli/desert_17.jpg","null","desert","J","non-repeat","null","231","stimuli/desert_17.jpg","","","","",""
"","","","","","image-keyboard-response","267","2.0.0","276665","plhygmgtf28","kangaroo","null","stimuli/bar_9.jpg","null","bar","K","non-repeat","null","232","stimuli/bar_9.jpg","","","","",""
"","","","","","image-keyboard-response","268","2.0.0","277668","plhygmgtf28","kangaroo","null","stimuli/bridge_8.jpg","null","bridge","L","non-repeat","null","233","stimuli/bridge_8.jpg","","","","",""
"","","","","","image-keyboard-response","269","2.0.0","278672","plhygmgtf28","kangaroo","null","stimuli/street_19.jpg","null","street","D","non-repeat","null","234","stimuli/street_19.jpg","","","","",""
"","","","","","image-keyboard-response","270","2.0.0","279676","plhygmgtf28","kangaroo","null","stimuli/kitchen_42.jpg","null","kitchen","E","non-repeat","null","235","stimuli/kitchen_42.jpg","","","","",""
"","","","","","image-keyboard-response","271","2.0.0","280680","plhygmgtf28","kangaroo","null","stimuli/stream_5.jpg","null","stream","F","non-repeat","null","236","stimuli/stream_5.jpg","","","","",""
"","","","","","image-keyboard-response","272","2.0.0","281684","plhygmgtf28","kangaroo","null","stimuli/desert_17.jpg","null","desert","J","non-repeat","null","237","stimuli/desert_17.jpg","","","","",""
"","","","","","image-keyboard-response","273","2.0.0","282687","plhygmgtf28","kangaroo","null","stimuli/bar_9.jpg","null","bar","K","non-repeat","null","238","stimuli/bar_9.jpg","","","","",""
"","","","","","image-keyboard-response","274","2.0.0","283691","plhygmgtf28","kangaroo","null","stimuli/bridge_8.jpg","null","bridge","L","non-repeat","null","239","stimuli/bridge_8.jpg","","","","",""
"","","","","","image-keyboard-response","275","2.0.0","284695","plhygmgtf28","kangaroo","null","stimuli/street_19.jpg","null","street","D","non-repeat","null","240","stimuli/street_19.jpg","","","","",""
"","","","","","image-keyboard-response","276","2.0.0","285700","plhygmgtf28","kangaroo","null","stimuli/kitchen_42.jpg","null","kitchen","E","non-repeat","null","241","stimuli/kitchen_42.jpg","","","","",""
"","","","","","image-keyboard-response","277","2.0.0","286704","plhygmgtf28","kangaroo","null","stimuli/stream_5.jpg","null","stream","F","non-repeat","null","242","stimuli/stream_5.jpg","","","","",""
"","","","","","image-keyboard-response","278","2.0.0","287708","plhygmgtf28","kangaroo","565","stimuli/stream_5.jpg"," ","stream","F","repeat"," ","242","","","","","",""
"","","","","","image-keyboard-response","279","2.0.0","288712","plhygmgtf28","kangaroo","null","stimuli/woods_68.jpg","null","woods","A","non-repeat","null","243","stimuli/woods_68.jpg","","","","",""
"","","","","","image-keyboard-response","280","2.0.0","289716","plhygmgtf28","kangaroo","null","stimuli/bathroom_26.jpg","null","bathroom","B","non-repeat","null","244","stimuli/bathroom_26.jpg","","","","",""
"","","","","","image-keyboard-response","281","2.0.0","290724","plhygmgtf28","kangaroo","null","stimuli/coast_55.jpg","null","coast","C","non-repeat","null","245","stimuli/coast_55.jpg","","","","",""
"","","","","","image-keyboard-response","282","2.0.0","291729","plhygmgtf28","kangaroo","null","stimuli/field_59.jpg","null","field","G","non-repeat","null","246","stimuli/field_59.jpg","","","","",""
"","","","","","image-keyboard-response","283","2.0.0","292732","plhygmgtf28","kangaroo","null","stimuli/gym_67.jpg","null","gym","H","non-repeat","null","247","stimuli/gym_67.jpg","","","","",""
"","","","","","image-keyboard-response","284","2.0.0","293736","plhygmgtf28","kangaroo","null","stimuli/playground_14.jpg","null","playground","I","non-repeat","null","248","stimuli/playground_14.jpg","","","","",""
"","","","","","image-keyboard-response","285","2.0.0","294740","plhygmgtf28","kangaroo","null","stimuli/desert_17.jpg","null","desert","J","non-repeat","null","249","stimuli/desert_17.jpg","","","","",""
"","","","","","image-keyboard-response","286","2.0.0","295745","plhygmgtf28","kangaroo","803","stimuli/desert_17.jpg"," ","desert","J","repeat"," ","249","","","","","",""
"","","","","","image-keyboard-response","287","2.0.0","296749","plhygmgtf28","kangaroo","null","stimuli/bar_9.jpg","null","bar","K","non-repeat","null","250","stimuli/bar_9.jpg","","","","",""
"","","","","","image-keyboard-response","288","2.0.0","297753","plhygmgtf28","kangaroo","null","stimuli/bridge_8.jpg","null","bridge","L","non-repeat","null","251","stimuli/bridge_8.jpg","","","","",""
"","","","","","image-keyboard-response","289","2.0.0","298756","plhygmgtf28","kangaroo","710","stimuli/bridge_8.jpg"," ","bridge","L","repeat"," ","251","","","","","",""
"","","","","","image-keyboard-response","290","2.0.0","299759","plhygmgtf28","kangaroo","null","stimuli/woods_68.jpg","null","woods","A","non-repeat","null","252","stimuli/woods_68.jpg","","","","",""
"","","","","","image-keyboard-response","291","2.0.0","300764","plhygmgtf28","kangaroo","532","stimuli/woods_68.jpg"," ","woods","A","repeat"," ","252","","","","","",""
"","","","","","image-keyboard-response","292","2.0.0","301768","plhygmgtf28","kangaroo","null","stimuli/bathroom_26.jpg","null","bathroom","B","non-repeat","null","253","stimuli/bathroom_26.jpg","","","","",""
"","","","","","image-keyboard-response","293","2.0.0","302772","plhygmgtf28","kangaroo","null","stimuli/coast_55.jpg","null","coast","C","non-repeat","null","254","stimuli/coast_55.jpg","","","","",""
"","","","","","image-keyboard-response","294","2.0.0","303776","plhygmgtf28","kangaroo","930","stimuli/coast_55.jpg"," ","coast","C","repeat"," ","254","","","","","",""
"","","","","","image-keyboard-response","295","2.0.0","304780","plhygmgtf28","kangaroo","null","stimuli/field_59.jpg","null","field","G","non-repeat","null","255","stimuli/field_59.jpg","","","","",""
"","","","","","image-keyboard-response","296","2.0.0","305784","plhygmgtf28","kangaroo","null","stimuli/gym_67.jpg","null","gym","H","non-repeat","null","256","stimuli/gym_67.jpg","","","","",""
"","","","","","image-keyboard-response","297","2.0.0","306787","plhygmgtf28","kangaroo","null","stimuli/playground_14.jpg","null","playground","I","non-repeat","null","257","stimuli/playground_14.jpg","","","","",""
"","","","","","image-keyboard-response","298","2.0.0","307791","plhygmgtf28","kangaroo","null","stimuli/woods_68.jpg","null","woods","A","non-repeat","null","258","stimuli/woods_68.jpg","","","","",""
"","","","","","image-keyboard-response","299","2.0.0","308795","plhygmgtf28","kangaroo","null","stimuli/bathroom_26.jpg","null","bathroom","B","non-repeat","null","259","stimuli/bathroom_26.jpg","","","","",""
"","","","","","image-keyboard-response","300","2.0.0","309799","plhygmgtf28","kangaroo","null","stimuli/coast_55.jpg","null","coast","C","non-repeat","null","260","stimuli/coast_55.jpg","","","","",""
"","","","","","image-keyboard-response","301","2.0.0","310803","plhygmgtf28","kangaroo","null","stimuli/desert_17.jpg","null","desert","J","non-repeat","null","261","stimuli/desert_17.jpg","","","","",""
"","","","","","image-keyboard-response","302","2.0.0","311808","plhygmgtf28","kangaroo","577","stimuli/desert_17.jpg"," ","desert","J","repeat"," ","261","","","","","",""
"","","","","","image-keyboard-response","303","2.0.0","312811","plhygmgtf28","kangaroo","null","stimuli/bar_9.jpg","null","bar","K","non-repeat","null","262","stimuli/bar_9.jpg","","","","",""
"","","","","","image-keyboard-response","304","2.0.0","313815","plhygmgtf28","kangaroo","null","stimuli/bridge_8.jpg","null","bridge","L","non-repeat","null","263","stimuli/bridge_8.jpg","","","","",""
"","","","","","image-keyboard-response","305","2.0.0","314819","plhygmgtf28","kangaroo","607","stimuli/bridge_8.jpg"," ","bridge","L","repeat"," ","263","","","","","",""
"","","","","","image-keyboard-response","306","2.0.0","315823","plhygmgtf28","kangaroo","null","stimuli/street_19.jpg","null","street","D","non-repeat","null","264","stimuli/street_19.jpg","","","","",""
"","","","","","image-keyboard-response","307","2.0.0","316828","plhygmgtf28","kangaroo","null","stimuli/kitchen_42.jpg","null","kitchen","E","non-repeat","null","265","stimuli/kitchen_42.jpg","","","","",""
"","","","","","image-keyboard-response","308","2.0.0","317832","plhygmgtf28","kangaroo","null","stimuli/stream_5.jpg","null","stream","F","non-repeat","null","266","stimuli/stream_5.jpg","","","","",""
"","","","","","image-keyboard-response","309","2.0.0","318836","plhygmgtf28","kangaroo","null","stimuli/desert_17.jpg","null","desert","J","non-repeat","null","267","stimuli/desert_17.jpg","","","","",""
"","","","","","image-keyboard-response","310","2.0.0","319839","plhygmgtf28","kangaroo","640","stimuli/desert_17.jpg"," ","desert","J","repeat"," ","267","","","","","",""
"","","","","","image-keyboard-response","311","2.0.0","320844","plhygmgtf28","kangaroo","null","stimuli/bar_9.jpg","null","bar","K","non-repeat","null","268","stimuli/bar_9.jpg","","","","",""
"","","","","","image-keyboard-response","312","2.0.0","321848","plhygmgtf28","kangaroo","null","stimuli/bridge_8.jpg","null","bridge","L","non-repeat","null","269","stimuli/bridge_8.jpg","","","","",""
"","","","","","image-keyboard-response","313","2.0.0","322852","plhygmgtf28","kangaroo","null","stimuli/street_19.jpg","null","street","D","non-repeat","null","270","stimuli/street_19.jpg","","","","",""
"","","","","","image-keyboard-response","314","2.0.0","323855","plhygmgtf28","kangaroo","null","stimuli/kitchen_42.jpg","null","kitchen","E","non-repeat","null","271","stimuli/kitchen_42.jpg","","","","",""
"","","","","","image-keyboard-response","315","2.0.0","324859","plhygmgtf28","kangaroo","null","stimuli/stream_5.jpg","null","stream","F","non-repeat","null","272","stimuli/stream_5.jpg","","","","",""
"","","","","","image-keyboard-response","316","2.0.0","325863","plhygmgtf28","kangaroo","null","stimuli/woods_68.jpg","null","woods","A","non-repeat","null","273","stimuli/woods_68.jpg","","","","",""
"","","","","","image-keyboard-response","317","2.0.0","326867","plhygmgtf28","kangaroo","null","stimuli/bathroom_26.jpg","null","bathroom","B","non-repeat","null","274","stimuli/bathroom_26.jpg","","","","",""
"","","","","","image-keyboard-response","318","2.0.0","327872","plhygmgtf28","kangaroo","null","stimuli/coast_55.jpg","null","coast","C","non-repeat","null","275","stimuli/coast_55.jpg","","","","",""
"","","","","","image-keyboard-response","319","2.0.0","328876","plhygmgtf28","kangaroo","null","stimuli/coast_55.jpg","null","coast","C","repeat"," ","275","","","","","",""
"","","","","","image-keyboard-response","320","2.0.0","329880","plhygmgtf28","kangaroo","505","stimuli/field_59.jpg"," ","field","G","non-repeat","null","276","stimuli/field_59.jpg","","","","",""
"","","","","","image-keyboard-response","321","2.0.0","330883","plhygmgtf28","kangaroo","null","stimuli/gym_67.jpg","null","gym","H","non-repeat","null","277","stimuli/gym_67.jpg","","","","",""
"","","","","","image-keyboard-response","322","2.0.0","331887","plhygmgtf28","kangaroo","null","stimuli/playground_14.jpg","null","playground","I","non-repeat","null","278","stimuli/playground_14.jpg","","","","",""
"","","","","","image-keyboard-response","323","2.0.0","332890","plhygmgtf28","kangaroo","584","stimuli/playground_14.jpg"," ","playground","I","repeat"," ","278","","","","","",""
"","","","","","image-keyboard-response","324","2.0.0","333895","plhygmgtf28","kangaroo","null","stimuli/desert_17.jpg","null","desert","J","non-repeat","null","279","stimuli/desert_17.jpg","","","","",""
"","","","","","image-keyboard-response","325","2.0.0","334899","plhygmgtf28","kangaroo","null","stimuli/bar_9.jpg","null","bar","K","non-repeat","null","280","stimuli/bar_9.jpg","","","","",""
"","","","","","image-keyboard-response","326","2.0.0","335903","plhygmgtf28","kangaroo","null","stimuli/bridge_8.jpg","null","bridge","L","non-repeat","null","281","stimuli/bridge_8.jpg","","","","",""
"","","","","","image-keyboard-response","327","2.0.0","336907","plhygmgtf28","kangaroo","503","stimuli/street_19.jpg"," ","street","D","non-repeat","null","282","stimuli/street_19.jpg","","","","",""
"","","","","","image-keyboard-response","328","2.0.0","337911","plhygmgtf28","kangaroo","null","stimuli/kitchen_42.jpg","null","kitchen","E","non-repeat","null","283","stimuli/kitchen_42.jpg","","","","",""
"","","","","","image-keyboard-response","329","2.0.0","338915","plhygmgtf28","kangaroo","null","stimuli/stream_5.jpg","null","stream","F","non-repeat","null","284","stimuli/stream_5.jpg","","","","",""
"","","","","","image-keyboard-response","330","2.0.0","339919","plhygmgtf28","kangaroo","null","stimuli/woods_68.jpg","null","woods","A","non-repeat","null","285","stimuli/woods_68.jpg","","","","",""
"","","","","","image-keyboard-response","331","2.0.0","340922","plhygmgtf28","kangaroo","null","stimuli/bathroom_26.jpg","null","bathroom","B","non-repeat","null","286","stimuli/bathroom_26.jpg","","","","",""
"","","","","","image-keyboard-response","332","2.0.0","341925","plhygmgtf28","kangaroo","null","stimuli/coast_55.jpg","null","coast","C","non-repeat","null","287","stimuli/coast_55.jpg","","","","",""
"","","","","","image-keyboard-response","333","2.0.0","342929","plhygmgtf28","kangaroo","null","stimuli/field_59.jpg","null","field","G","non-repeat","null","288","stimuli/field_59.jpg","","","","",""
"","","","","","image-keyboard-response","334","2.0.0","343932","plhygmgtf28","kangaroo","null","stimuli/gym_67.jpg","null","gym","H","non-repeat","null","289","stimuli/gym_67.jpg","","","","",""
"","","","","","image-keyboard-response","335","2.0.0","344935","plhygmgtf28","kangaroo","null","stimuli/playground_14.jpg","null","playground","I","non-repeat","null","290","stimuli/playground_14.jpg","","","","",""
"","","","","","image-keyboard-response","336","2.0.0","345939","plhygmgtf28","kangaroo","null","stimuli/street_19.jpg","null","street","D","non-repeat","null","291","stimuli/street_19.jpg","","","","",""
"","","","","","image-keyboard-response","337","2.0.0","346943","plhygmgtf28","kangaroo","null","stimuli/kitchen_42.jpg","null","kitchen","E","non-repeat","null","292","stimuli/kitchen_42.jpg","","","","",""
"","","","","","image-keyboard-response","338","2.0.0","347946","plhygmgtf28","kangaroo","null","stimuli/stream_5.jpg","null","stream","F","non-repeat","null","293","stimuli/stream_5.jpg","","","","",""
"","","","","","image-keyboard-response","339","2.0.0","348950","plhygmgtf28","kangaroo","null","stimuli/field_59.jpg","null","field","G","non-repeat","null","294","stimuli/field_59.jpg","","","","",""
"","","","","","image-keyboard-response","340","2.0.0","349954","plhygmgtf28","kangaroo","null","stimuli/gym_67.jpg","null","gym","H","non-repeat","null","295","stimuli/gym_67.jpg","","","","",""
"","","","","","image-keyboard-response","341","2.0.0","350958","plhygmgtf28","kangaroo","null","stimuli/playground_14.jpg","null","playground","I","non-repeat","null","296","stimuli/playground_14.jpg","","","","",""
"","","","","","image-keyboard-response","342","2.0.0","351962","plhygmgtf28","kangaroo","null","stimuli/woods_68.jpg","null","woods","A","non-repeat","null","297","stimuli/woods_68.jpg","","","","",""
"","","","","","image-keyboard-response","343","2.0.0","352966","plhygmgtf28","kangaroo","null","stimuli/bathroom_26.jpg","null","bathroom","B","non-repeat","null","298","stimuli/bathroom_26.jpg","","","","",""
"","","","","","image-keyboard-response","344","2.0.0","353969","plhygmgtf28","kangaroo","null","stimuli/coast_55.jpg","null","coast","C","non-repeat","null","299","stimuli/coast_55.jpg","","","","",""
"","","","","","image-keyboard-response","345","2.0.0","354973","plhygmgtf28","kangaroo","null","stimuli/field_59.jpg","null","field","G","non-repeat","null","300","stimuli/field_59.jpg","","","","",""
"","","","","","image-keyboard-response","346","2.0.0","355978","plhygmgtf28","kangaroo","null","stimuli/field_59.jpg","null","field","G","repeat"," ","300","","","","","",""
"","","","","","image-keyboard-response","347","2.0.0","356981","plhygmgtf28","kangaroo","null","stimuli/gym_67.jpg","null","gym","H","non-repeat","null","301","stimuli/gym_67.jpg","","","","",""
"","","","","","image-keyboard-response","348","2.0.0","357986","plhygmgtf28","kangaroo","null","stimuli/playground_14.jpg","null","playground","I","non-repeat","null","302","stimuli/playground_14.jpg","","","","",""
"","","","","","image-keyboard-response","349","2.0.0","358990","plhygmgtf28","kangaroo","null","stimuli/woods_68.jpg","null","woods","A","non-repeat","null","303","stimuli/woods_68.jpg","","","","",""
"","","","","","image-keyboard-response","350","2.0.0","359995","plhygmgtf28","kangaroo","null","stimuli/bathroom_26.jpg","null","bathroom","B","non-repeat","null","304","stimuli/bathroom_26.jpg","","","","",""
"","","","","","image-keyboard-response","351","2.0.0","360999","plhygmgtf28","kangaroo","null","stimuli/coast_55.jpg","null","coast","C","non-repeat","null","305","stimuli/coast_55.jpg","","","","",""
"","","","","","image-keyboard-response","352","2.0.0","362002","plhygmgtf28","kangaroo","null","stimuli/street_19.jpg","null","street","D","non-repeat","null","306","stimuli/street_19.jpg","","","","",""
"","","","","","image-keyboard-response","353","2.0.0","363006","plhygmgtf28","kangaroo","null","stimuli/kitchen_42.jpg","null","kitchen","E","non-repeat","null","307","stimuli/kitchen_42.jpg","","","","",""
"","","","","","image-keyboard-response","354","2.0.0","364010","plhygmgtf28","kangaroo","null","stimuli/stream_5.jpg","null","stream","F","non-repeat","null","308","stimuli/stream_5.jpg","","","","",""
"","","","","","image-keyboard-response","355","2.0.0","365014","plhygmgtf28","kangaroo","null","stimuli/field_59.jpg","null","field","G","non-repeat","null","309","stimuli/field_59.jpg","","","","",""
"","","","","","image-keyboard-response","356","2.0.0","366017","plhygmgtf28","kangaroo","421","stimuli/field_59.jpg"," ","field","G","repeat"," ","309","","","","","",""
"","","","","","image-keyboard-response","357","2.0.0","367021","plhygmgtf28","kangaroo","null","stimuli/gym_67.jpg","null","gym","H","non-repeat","null","310","stimuli/gym_67.jpg","","","","",""
"","","","","","image-keyboard-response","358","2.0.0","368025","plhygmgtf28","kangaroo","null","stimuli/playground_14.jpg","null","playground","I","non-repeat","null","311","stimuli/playground_14.jpg","","","","",""
"","","","","","image-keyboard-response","359","2.0.0","369030","plhygmgtf28","kangaroo","null","stimuli/woods_68.jpg","null","woods","A","non-repeat","null","312","stimuli/woods_68.jpg","","","","",""
"","","","","","image-keyboard-response","360","2.0.0","370035","plhygmgtf28","kangaroo","null","stimuli/bathroom_26.jpg","null","bathroom","B","non-repeat","null","313","stimuli/bathroom_26.jpg","","","","",""
"","","","","","image-keyboard-response","361","2.0.0","371038","plhygmgtf28","kangaroo","null","stimuli/coast_55.jpg","null","coast","C","non-repeat","null","314","stimuli/coast_55.jpg","","","","",""
"","","","","","image-keyboard-response","362","2.0.0","372042","plhygmgtf28","kangaroo","null","stimuli/field_59.jpg","null","field","G","non-repeat","null","315","stimuli/field_59.jpg","","","","",""
"","","","","","image-keyboard-response","363","2.0.0","373047","plhygmgtf28","kangaroo","null","stimuli/gym_67.jpg","null","gym","H","non-repeat","null","316","stimuli/gym_67.jpg","","","","",""
"","","","","","image-keyboard-response","364","2.0.0","374051","plhygmgtf28","kangaroo","null","stimuli/playground_14.jpg","null","playground","I","non-repeat","null","317","stimuli/playground_14.jpg","","","","",""
"","","","","","image-keyboard-response","365","2.0.0","375054","plhygmgtf28","kangaroo","null","stimuli/desert_17.jpg","null","desert","J","non-repeat","null","318","stimuli/desert_17.jpg","","","","",""
"","","","","","image-keyboard-response","366","2.0.0","376057","plhygmgtf28","kangaroo","null","stimuli/bar_9.jpg","null","bar","K","non-repeat","null","319","stimuli/bar_9.jpg","","","","",""
"","","","","","image-keyboard-response","367","2.0.0","377066","plhygmgtf28","kangaroo","null","stimuli/bridge_8.jpg","null","bridge","L","non-repeat","null","320","stimuli/bridge_8.jpg","","","","",""
"","","","","","image-keyboard-response","368","2.0.0","378070","plhygmgtf28","kangaroo","null","stimuli/woods_68.jpg","null","woods","A","non-repeat","null","321","stimuli/woods_68.jpg","","","","",""
"","","","","","image-keyboard-response","369","2.0.0","379074","plhygmgtf28","kangaroo","null","stimuli/bathroom_26.jpg","null","bathroom","B","non-repeat","null","322","stimuli/bathroom_26.jpg","","","","",""
"","","","","","image-keyboard-response","370","2.0.0","380078","plhygmgtf28","kangaroo","null","stimuli/coast_55.jpg","null","coast","C","non-repeat","null","323","stimuli/coast_55.jpg","","","","",""
"","","","","","image-keyboard-response","371","2.0.0","381082","plhygmgtf28","kangaroo","674","stimuli/coast_55.jpg"," ","coast","C","repeat"," ","323","","","","","",""
"","","","","","image-keyboard-response","372","2.0.0","382086","plhygmgtf28","kangaroo","null","stimuli/street_19.jpg","null","street","D","non-repeat","null","324","stimuli/street_19.jpg","","","","",""
"","","","","","image-keyboard-response","373","2.0.0","383089","plhygmgtf28","kangaroo","null","stimuli/kitchen_42.jpg","null","kitchen","E","non-repeat","null","325","stimuli/kitchen_42.jpg","","","","",""
"","","","","","image-keyboard-response","374","2.0.0","384093","plhygmgtf28","kangaroo","null","stimuli/stream_5.jpg","null","stream","F","non-repeat","null","326","stimuli/stream_5.jpg","","","","",""
"","","","","","image-keyboard-response","375","2.0.0","385096","plhygmgtf28","kangaroo","null","stimuli/desert_17.jpg","null","desert","J","non-repeat","null","327","stimuli/desert_17.jpg","","","","",""
"","","","","","image-keyboard-response","376","2.0.0","386099","plhygmgtf28","kangaroo","null","stimuli/bar_9.jpg","null","bar","K","non-repeat","null","328","stimuli/bar_9.jpg","","","","",""
"","","","","","image-keyboard-response","377","2.0.0","387103","plhygmgtf28","kangaroo","null","stimuli/bridge_8.jpg","null","bridge","L","non-repeat","null","329","stimuli/bridge_8.jpg","","","","",""
"","","","","","image-keyboard-response","378","2.0.0","388107","plhygmgtf28","kangaroo","null","stimuli/woods_68.jpg","null","woods","A","non-repeat","null","330","stimuli/woods_68.jpg","","","","",""
"","","","","","image-keyboard-response","379","2.0.0","389111","plhygmgtf28","kangaroo","null","stimuli/bathroom_26.jpg","null","bathroom","B","non-repeat","null","331","stimuli/bathroom_26.jpg","","","","",""
"","","","","","image-keyboard-response","380","2.0.0","390115","plhygmgtf28","kangaroo","null","stimuli/coast_55.jpg","null","coast","C","non-repeat","null","332","stimuli/coast_55.jpg","","","","",""
"","","","","","image-keyboard-response","381","2.0.0","391119","plhygmgtf28","kangaroo","null","stimuli/field_59.jpg","null","field","G","non-repeat","null","333","stimuli/field_59.jpg","","","","",""
"","","","","","image-keyboard-response","382","2.0.0","392123","plhygmgtf28","kangaroo","null","stimuli/gym_67.jpg","null","gym","H","non-repeat","null","334","stimuli/gym_67.jpg","","","","",""
"","","","","","image-keyboard-response","383","2.0.0","393126","plhygmgtf28","kangaroo","null","stimuli/playground_14.jpg","null","playground","I","non-repeat","null","335","stimuli/playground_14.jpg","","","","",""
"","","","","","image-keyboard-response","384","2.0.0","394131","plhygmgtf28","kangaroo","null","stimuli/woods_68.jpg","null","woods","A","non-repeat","null","336","stimuli/woods_68.jpg","","","","",""
"","","","","","image-keyboard-response","385","2.0.0","395134","plhygmgtf28","kangaroo","null","stimuli/bathroom_26.jpg","null","bathroom","B","non-repeat","null","337","stimuli/bathroom_26.jpg","","","","",""
"","","","","","image-keyboard-response","386","2.0.0","396139","plhygmgtf28","kangaroo","null","stimuli/coast_55.jpg","null","coast","C","non-repeat","null","338","stimuli/coast_55.jpg","","","","",""
"","","","","","image-keyboard-response","387","2.0.0","397143","plhygmgtf28","kangaroo","730","stimuli/coast_55.jpg"," ","coast","C","repeat"," ","338","","","","","",""
"","","","","","image-keyboard-response","388","2.0.0","398147","plhygmgtf28","kangaroo","null","stimuli/street_19.jpg","null","street","D","non-repeat","null","339","stimuli/street_19.jpg","","","","",""
"","","","","","image-keyboard-response","389","2.0.0","399150","plhygmgtf28","kangaroo","null","stimuli/kitchen_42.jpg","null","kitchen","E","non-repeat","null","340","stimuli/kitchen_42.jpg","","","","",""
"","","","","","image-keyboard-response","390","2.0.0","400154","plhygmgtf28","kangaroo","null","stimuli/stream_5.jpg","null","stream","F","non-repeat","null","341","stimuli/stream_5.jpg","","","","",""
"","","","","","image-keyboard-response","391","2.0.0","401158","plhygmgtf28","kangaroo","532","stimuli/stream_5.jpg"," ","stream","F","repeat"," ","341","","","","","",""
"","","","","","image-keyboard-response","392","2.0.0","402162","plhygmgtf28","kangaroo","null","stimuli/desert_17.jpg","null","desert","J","non-repeat","null","342","stimuli/desert_17.jpg","","","","",""
"","","","","","image-keyboard-response","393","2.0.0","403166","plhygmgtf28","kangaroo","571","stimuli/desert_17.jpg"," ","desert","J","repeat"," ","342","","","","","",""
"","","","","","image-keyboard-response","394","2.0.0","404170","plhygmgtf28","kangaroo","null","stimuli/bar_9.jpg","null","bar","K","non-repeat","null","343","stimuli/bar_9.jpg","","","","",""
"","","","","","image-keyboard-response","395","2.0.0","405174","plhygmgtf28","kangaroo","null","stimuli/bridge_8.jpg","null","bridge","L","non-repeat","null","344","stimuli/bridge_8.jpg","","","","",""
"","","","","","image-keyboard-response","396","2.0.0","406179","plhygmgtf28","kangaroo","null","stimuli/field_59.jpg","null","field","G","non-repeat","null","345","stimuli/field_59.jpg","","","","",""
"","","","","","image-keyboard-response","397","2.0.0","407183","plhygmgtf28","kangaroo","null","stimuli/gym_67.jpg","null","gym","H","non-repeat","null","346","stimuli/gym_67.jpg","","","","",""
"","","","","","image-keyboard-response","398","2.0.0","408187","plhygmgtf28","kangaroo","882","stimuli/playground_14.jpg"," ","playground","I","non-repeat","null","347","stimuli/playground_14.jpg","","","","",""
"","","","","","image-keyboard-response","399","2.0.0","409190","plhygmgtf28","kangaroo","null","stimuli/playground_14.jpg","null","playground","I","repeat"," ","347","","","","","",""
"","","","","","image-keyboard-response","400","2.0.0","410194","plhygmgtf28","kangaroo","null","stimuli/woods_68.jpg","null","woods","A","non-repeat","null","348","stimuli/woods_68.jpg","","","","",""
"","","","","","image-keyboard-response","401","2.0.0","411199","plhygmgtf28","kangaroo","null","stimuli/bathroom_26.jpg","null","bathroom","B","non-repeat","null","349","stimuli/bathroom_26.jpg","","","","",""
"","","","","","image-keyboard-response","402","2.0.0","412202","plhygmgtf28","kangaroo","null","stimuli/coast_55.jpg","null","coast","C","non-repeat","null","350","stimuli/coast_55.jpg","","","","",""
"","","","","","image-keyboard-response","403","2.0.0","413206","plhygmgtf28","kangaroo","null","stimuli/desert_17.jpg","null","desert","J","non-repeat","null","351","stimuli/desert_17.jpg","","","","",""
"","","","","","image-keyboard-response","404","2.0.0","414211","plhygmgtf28","kangaroo","null","stimuli/bar_9.jpg","null","bar","K","non-repeat","null","352","stimuli/bar_9.jpg","","","","",""
"","","","","","image-keyboard-response","405","2.0.0","415215","plhygmgtf28","kangaroo","null","stimuli/bridge_8.jpg","null","bridge","L","non-repeat","null","353","stimuli/bridge_8.jpg","","","","",""
"","","","","","image-keyboard-response","406","2.0.0","416219","plhygmgtf28","kangaroo","560","stimuli/bridge_8.jpg"," ","bridge","L","repeat"," ","353","","","","","",""
"","","","","","image-keyboard-response","407","2.0.0","417223","plhygmgtf28","kangaroo","null","stimuli/woods_68.jpg","null","woods","A","non-repeat","null","354","stimuli/woods_68.jpg","","","","",""
"","","","","","image-keyboard-response","408","2.0.0","418227","plhygmgtf28","kangaroo","null","stimuli/bathroom_26.jpg","null","bathroom","B","non-repeat","null","355","stimuli/bathroom_26.jpg","","","","",""
"","","","","","image-keyboard-response","409","2.0.0","419230","plhygmgtf28","kangaroo","null","stimuli/coast_55.jpg","null","coast","C","non-repeat","null","356","stimuli/coast_55.jpg","","","","",""
"","","","","","image-keyboard-response","410","2.0.0","420235","plhygmgtf28","kangaroo","null","stimuli/field_59.jpg","null","field","G","non-repeat","null","357","stimuli/field_59.jpg","","","","",""
"","","","","","image-keyboard-response","411","2.0.0","421239","plhygmgtf28","kangaroo","439","stimuli/field_59.jpg"," ","field","G","repeat"," ","357","","","","","",""
"","","","","","image-keyboard-response","412","2.0.0","422242","plhygmgtf28","kangaroo","null","stimuli/gym_67.jpg","null","gym","H","non-repeat","null","358","stimuli/gym_67.jpg","","","","",""
"","","","","","image-keyboard-response","413","2.0.0","423246","plhygmgtf28","kangaroo","null","stimuli/playground_14.jpg","null","playground","I","non-repeat","null","359","stimuli/playground_14.jpg","","","","",""
"","","","","","image-keyboard-response","414","2.0.0","424249","plhygmgtf28","kangaroo","null","stimuli/street_19.jpg","null","street","D","non-repeat","null","360","stimuli/street_19.jpg","","","","",""
"","","","","","image-keyboard-response","415","2.0.0","425253","plhygmgtf28","kangaroo","null","stimuli/kitchen_42.jpg","null","kitchen","E","non-repeat","null","361","stimuli/kitchen_42.jpg","","","","",""
"","","","","","image-keyboard-response","416","2.0.0","426258","plhygmgtf28","kangaroo","null","stimuli/stream_5.jpg","null","stream","F","non-repeat","null","362","stimuli/stream_5.jpg","","","","",""
"","","","","","image-keyboard-response","417","2.0.0","427262","plhygmgtf28","kangaroo","759","stimuli/stream_5.jpg"," ","stream","F","repeat"," ","362","","","","","",""
"","","","","","image-keyboard-response","418","2.0.0","428266","plhygmgtf28","kangaroo","null","stimuli/woods_68.jpg","null","woods","A","non-repeat","null","363","stimuli/woods_68.jpg","","","","",""
"","","","","","image-keyboard-response","419","2.0.0","429270","plhygmgtf28","kangaroo","null","stimuli/bathroom_26.jpg","null","bathroom","B","non-repeat","null","364","stimuli/bathroom_26.jpg","","","","",""
"","","","","","image-keyboard-response","420","2.0.0","430274","plhygmgtf28","kangaroo","null","stimuli/coast_55.jpg","null","coast","C","non-repeat","null","365","stimuli/coast_55.jpg","","","","",""
"","","","","","image-keyboard-response","421","2.0.0","431279","plhygmgtf28","kangaroo","null","stimuli/street_19.jpg","null","street","D","non-repeat","null","366","stimuli/street_19.jpg","","","","",""
"","","","","","image-keyboard-response","422","2.0.0","432283","plhygmgtf28","kangaroo","null","stimuli/kitchen_42.jpg","null","kitchen","E","non-repeat","null","367","stimuli/kitchen_42.jpg","","","","",""
"","","","","","image-keyboard-response","423","2.0.0","433286","plhygmgtf28","kangaroo","null","stimuli/stream_5.jpg","null","stream","F","non-repeat","null","368","stimuli/stream_5.jpg","","","","",""
"","","","","","image-keyboard-response","424","2.0.0","434291","plhygmgtf28","kangaroo","null","stimuli/woods_68.jpg","null","woods","A","non-repeat","null","369","stimuli/woods_68.jpg","","","","",""
"","","","","","image-keyboard-response","425","2.0.0","435295","plhygmgtf28","kangaroo","null","stimuli/bathroom_26.jpg","null","bathroom","B","non-repeat","null","370","stimuli/bathroom_26.jpg","","","","",""
"","","","","","image-keyboard-response","426","2.0.0","436298","plhygmgtf28","kangaroo","null","stimuli/coast_55.jpg","null","coast","C","non-repeat","null","371","stimuli/coast_55.jpg","","","","",""
"","","","","","image-keyboard-response","427","2.0.0","437302","plhygmgtf28","kangaroo","643","stimuli/coast_55.jpg"," ","coast","C","repeat"," ","371","","","","","",""
"","","","","","image-keyboard-response","428","2.0.0","438306","plhygmgtf28","kangaroo","null","stimuli/desert_17.jpg","null","desert","J","non-repeat","null","372","stimuli/desert_17.jpg","","","","",""
"","","","","","image-keyboard-response","429","2.0.0","439310","plhygmgtf28","kangaroo","558","stimuli/desert_17.jpg"," ","desert","J","repeat"," ","372","","","","","",""
"","","","","","image-keyboard-response","430","2.0.0","440313","plhygmgtf28","kangaroo","null","stimuli/bar_9.jpg","null","bar","K","non-repeat","null","373","stimuli/bar_9.jpg","","","","",""
"","","","","","image-keyboard-response","431","2.0.0","441317","plhygmgtf28","kangaroo","null","stimuli/bridge_8.jpg","null","bridge","L","non-repeat","null","374","stimuli/bridge_8.jpg","","","","",""
"","","","","","image-keyboard-response","432","2.0.0","442320","plhygmgtf28","kangaroo","null","stimuli/woods_68.jpg","null","woods","A","non-repeat","null","375","stimuli/woods_68.jpg","","","","",""
"","","","","","image-keyboard-response","433","2.0.0","443324","plhygmgtf28","kangaroo","null","stimuli/bathroom_26.jpg","null","bathroom","B","non-repeat","null","376","stimuli/bathroom_26.jpg","","","","",""
"","","","","","image-keyboard-response","434","2.0.0","444328","plhygmgtf28","kangaroo","null","stimuli/coast_55.jpg","null","coast","C","non-repeat","null","377","stimuli/coast_55.jpg","","","","",""
"","","","","","image-keyboard-response","435","2.0.0","445332","plhygmgtf28","kangaroo","null","stimuli/field_59.jpg","null","field","G","non-repeat","null","378","stimuli/field_59.jpg","","","","",""
"","","","","","image-keyboard-response","436","2.0.0","446336","plhygmgtf28","kangaroo","null","stimuli/gym_67.jpg","null","gym","H","non-repeat","null","379","stimuli/gym_67.jpg","","","","",""
"","","","","","image-keyboard-response","437","2.0.0","447341","plhygmgtf28","kangaroo","null","stimuli/playground_14.jpg","null","playground","I","non-repeat","null","380","stimuli/playground_14.jpg","","","","",""
"","","","","","image-keyboard-response","438","2.0.0","448345","plhygmgtf28","kangaroo","null","stimuli/street_19.jpg","null","street","D","non-repeat","null","381","stimuli/street_19.jpg","","","","",""
"","","","","","image-keyboard-response","439","2.0.0","449348","plhygmgtf28","kangaroo","null","stimuli/kitchen_42.jpg","null","kitchen","E","non-repeat","null","382","stimuli/kitchen_42.jpg","","","","",""
"","","","","","image-keyboard-response","440","2.0.0","450352","plhygmgtf28","kangaroo","null","stimuli/stream_5.jpg","null","stream","F","non-repeat","null","383","stimuli/stream_5.jpg","","","","",""
"","","","","","image-keyboard-response","441","2.0.0","451356","plhygmgtf28","kangaroo","null","stimuli/desert_17.jpg","null","desert","J","non-repeat","null","384","stimuli/desert_17.jpg","","","","",""
"","","","","","image-keyboard-response","442","2.0.0","452360","plhygmgtf28","kangaroo","null","stimuli/bar_9.jpg","null","bar","K","non-repeat","null","385","stimuli/bar_9.jpg","","","","",""
"","","","","","image-keyboard-response","443","2.0.0","453364","plhygmgtf28","kangaroo","null","stimuli/bridge_8.jpg","null","bridge","L","non-repeat","null","386","stimuli/bridge_8.jpg","","","","",""
"","","","","","image-keyboard-response","444","2.0.0","454369","plhygmgtf28","kangaroo","null","stimuli/field_59.jpg","null","field","G","non-repeat","null","387","stimuli/field_59.jpg","","","","",""
"","","","","","image-keyboard-response","445","2.0.0","455372","plhygmgtf28","kangaroo","null","stimuli/gym_67.jpg","null","gym","H","non-repeat","null","388","stimuli/gym_67.jpg","","","","",""
"","","","","","image-keyboard-response","446","2.0.0","456376","plhygmgtf28","kangaroo","null","stimuli/playground_14.jpg","null","playground","I","non-repeat","null","389","stimuli/playground_14.jpg","","","","",""
"","","","","","image-keyboard-response","447","2.0.0","457380","plhygmgtf28","kangaroo","null","stimuli/desert_17.jpg","null","desert","J","non-repeat","null","390","stimuli/desert_17.jpg","","","","",""
"","","","","","image-keyboard-response","448","2.0.0","458384","plhygmgtf28","kangaroo","null","stimuli/bar_9.jpg","null","bar","K","non-repeat","null","391","stimuli/bar_9.jpg","","","","",""
"","","","","","image-keyboard-response","449","2.0.0","459388","plhygmgtf28","kangaroo","null","stimuli/bridge_8.jpg","null","bridge","L","non-repeat","null","392","stimuli/bridge_8.jpg","","","","",""
"","","","","","image-keyboard-response","450","2.0.0","460390","plhygmgtf28","kangaroo","496","stimuli/bridge_8.jpg"," ","bridge","L","repeat"," ","392","","","","","",""
"","","","","","image-keyboard-response","451","2.0.0","461394","plhygmgtf28","kangaroo","null","stimuli/street_19.jpg","null","street","D","non-repeat","null","393","stimuli/street_19.jpg","","","","",""
"","","","","","image-keyboard-response","452","2.0.0","462398","plhygmgtf28","kangaroo","null","stimuli/kitchen_42.jpg","null","kitchen","E","non-repeat","null","394","stimuli/kitchen_42.jpg","","","","",""
"","","","","","image-keyboard-response","453","2.0.0","463407","plhygmgtf28","kangaroo","null","stimuli/stream_5.jpg","null","stream","F","non-repeat","null","395","stimuli/stream_5.jpg","","","","",""
"","","","","","image-keyboard-response","454","2.0.0","464411","plhygmgtf28","kangaroo","null","stimuli/woods_68.jpg","null","woods","A","non-repeat","null","396","stimuli/woods_68.jpg","","","","",""
"","","","","","image-keyboard-response","455","2.0.0","465415","plhygmgtf28","kangaroo","null","stimuli/bathroom_26.jpg","null","bathroom","B","non-repeat","null","397","stimuli/bathroom_26.jpg","","","","",""
"","","","","","image-keyboard-response","456","2.0.0","466419","plhygmgtf28","kangaroo","null","stimuli/coast_55.jpg","null","coast","C","non-repeat","null","398","stimuli/coast_55.jpg","","","","",""
"","","","","","image-keyboard-response","457","2.0.0","467423","plhygmgtf28","kangaroo","null","stimuli/street_19.jpg","null","street","D","non-repeat","null","399","stimuli/street_19.jpg","","","","",""
"","","","","","image-keyboard-response","458","2.0.0","468427","plhygmgtf28","kangaroo","null","stimuli/kitchen_42.jpg","null","kitchen","E","non-repeat","null","400","stimuli/kitchen_42.jpg","","","","",""
"","","","","","image-keyboard-response","459","2.0.0","469432","plhygmgtf28","kangaroo","null","stimuli/stream_5.jpg","null","stream","F","non-repeat","null","401","stimuli/stream_5.jpg","","","","",""
"","","","","","image-keyboard-response","460","2.0.0","470435","plhygmgtf28","kangaroo","null","stimuli/desert_17.jpg","null","desert","J","non-repeat","null","402","stimuli/desert_17.jpg","","","","",""
"","","","","","image-keyboard-response","461","2.0.0","471439","plhygmgtf28","kangaroo","null","stimuli/bar_9.jpg","null","bar","K","non-repeat","null","403","stimuli/bar_9.jpg","","","","",""
"","","","","","image-keyboard-response","462","2.0.0","472443","plhygmgtf28","kangaroo","null","stimuli/bridge_8.jpg","null","bridge","L","non-repeat","null","404","stimuli/bridge_8.jpg","","","","",""
"","","","","","image-keyboard-response","463","2.0.0","473448","plhygmgtf28","kangaroo","36","stimuli/woods_68.jpg"," ","woods","A","non-repeat","null","405","stimuli/woods_68.jpg","","","","",""
"","","","","","image-keyboard-response","464","2.0.0","474452","plhygmgtf28","kangaroo","null","stimuli/woods_68.jpg","null","woods","A","repeat"," ","405","","","","","",""
"","","","","","image-keyboard-response","465","2.0.0","475456","plhygmgtf28","kangaroo","null","stimuli/bathroom_26.jpg","null","bathroom","B","non-repeat","null","406","stimuli/bathroom_26.jpg","","","","",""
"","","","","","image-keyboard-response","466","2.0.0","476460","plhygmgtf28","kangaroo","null","stimuli/coast_55.jpg","null","coast","C","non-repeat","null","407","stimuli/coast_55.jpg","","","","",""
"","","","","","image-keyboard-response","467","2.0.0","477464","plhygmgtf28","kangaroo","null","stimuli/field_59.jpg","null","field","G","non-repeat","null","408","stimuli/field_59.jpg","","","","",""
"","","","","","image-keyboard-response","468","2.0.0","478469","plhygmgtf28","kangaroo","null","stimuli/gym_67.jpg","null","gym","H","non-repeat","null","409","stimuli/gym_67.jpg","","","","",""
"","","","","","image-keyboard-response","469","2.0.0","479473","plhygmgtf28","kangaroo","null","stimuli/playground_14.jpg","null","playground","I","non-repeat","null","410","stimuli/playground_14.jpg","","","","",""
"","","","","","html-keyboard-response","470","2.0.0","487943","plhygmgtf28","kangaroo","8467","
    <div style='width:900px;margin: auto;'><p>In the next part of the experiment, we want to see how well you learned the structure in the stream of images.</p>
    <p>On each trial, you will see two sequences of three images, sequence 1 and 2. We will ask you to indicate which sequence was more familiar based on the first part of the experiment.</p>
    <p>Press 1 if the first sequence (sequence 1) felt more familiar. Press 2 if the second sequence (sequence 2) felt more familiar.</p>
    <p>Press any key to begin.</p></div>"," ","","","","","","","","","","",""
"","","","","","html-keyboard-response","471","2.0.0","488944","plhygmgtf28","kangaroo","null","<p>Sequence 1</p>","null","","","","","","","","","","",""
"","","","","","image-keyboard-response","472","2.0.0","489948","plhygmgtf28","kangaroo","null","stimuli/woods_68.jpg","null","","","","","","","","","","",""
"","","","","","image-keyboard-response","473","2.0.0","490952","plhygmgtf28","kangaroo","null","stimuli/kitchen_42.jpg","null","","","","","","","","","","",""
"","","","","","image-keyboard-response","474","2.0.0","491956","plhygmgtf28","kangaroo","null","stimuli/playground_14.jpg","null","","","","","","","","","","",""
"","","","","","html-keyboard-response","475","2.0.0","492959","plhygmgtf28","kangaroo","null","<p></p>","null","","","","","","","","","","",""
"","","","","","html-keyboard-response","476","2.0.0","493963","plhygmgtf28","kangaroo","null","<p>Sequence 2</p>","null","","","","","","","","","","",""
"","","","","","image-keyboard-response","477","2.0.0","494966","plhygmgtf28","kangaroo","null","stimuli/field_59.jpg","null","","","","","","","","","","",""
"","","","","","image-keyboard-response","478","2.0.0","495969","plhygmgtf28","kangaroo","null","stimuli/gym_67.jpg","null","","","","","","","","","","",""
"","","","","","image-keyboard-response","479","2.0.0","496973","plhygmgtf28","kangaroo","null","stimuli/playground_14.jpg","null","","","","","","","","","","",""
"","","","","","html-keyboard-response","480","2.0.0","498558","plhygmgtf28","kangaroo","1584","<p>Press '1' if the first sequence was familiar, '2' if the second was.</p>","1","","","2","","","","[""G"",""H"",""I""]","[""A"",""E"",""I""]","false","[""<p>Sequence 1</p>"",""stimuli/woods_68.jpg"",""stimuli/kitchen_42.jpg"",""stimuli/playground_14.jpg""]","[""<p>Sequence 2</p>"",""stimuli/field_59.jpg"",""stimuli/gym_67.jpg"",""stimuli/playground_14.jpg""]"
"","","","","","html-keyboard-response","481","2.0.0","499561","plhygmgtf28","kangaroo","null","<p>Sequence 1</p>","null","","","","","","","","","","",""
"","","","","","image-keyboard-response","482","2.0.0","500565","plhygmgtf28","kangaroo","null","stimuli/field_59.jpg","null","","","","","","","","","","",""
"","","","","","image-keyboard-response","483","2.0.0","501569","plhygmgtf28","kangaroo","null","stimuli/bar_9.jpg","null","","","","","","","","","","",""
"","","","","","image-keyboard-response","484","2.0.0","502573","plhygmgtf28","kangaroo","null","stimuli/coast_55.jpg","null","","","","","","","","","","",""
"","","","","","html-keyboard-response","485","2.0.0","503576","plhygmgtf28","kangaroo","null","<p></p>","null","","","","","","","","","","",""
"","","","","","html-keyboard-response","486","2.0.0","504579","plhygmgtf28","kangaroo","null","<p>Sequence 2</p>","null","","","","","","","","","","",""
"","","","","","image-keyboard-response","487","2.0.0","505583","plhygmgtf28","kangaroo","null","stimuli/woods_68.jpg","null","","","","","","","","","","",""
"","","","","","image-keyboard-response","488","2.0.0","506587","plhygmgtf28","kangaroo","null","stimuli/bathroom_26.jpg","null","","","","","","","","","","",""
"","","","","","image-keyboard-response","489","2.0.0","507591","plhygmgtf28","kangaroo","null","stimuli/coast_55.jpg","null","","","","","","","","","","",""
"","","","","","html-keyboard-response","490","2.0.0","508367","plhygmgtf28","kangaroo","774","<p>Press '1' if the first sequence was familiar, '2' if the second was.</p>","1","","","2","","","","[""A"",""B"",""C""]","[""G"",""K"",""C""]","false","[""<p>Sequence 1</p>"",""stimuli/field_59.jpg"",""stimuli/bar_9.jpg"",""stimuli/coast_55.jpg""]","[""<p>Sequence 2</p>"",""stimuli/woods_68.jpg"",""stimuli/bathroom_26.jpg"",""stimuli/coast_55.jpg""]"
"","","","","","html-keyboard-response","491","2.0.0","509370","plhygmgtf28","kangaroo","null","<p>Sequence 1</p>","null","","","","","","","","","","",""
"","","","","","image-keyboard-response","492","2.0.0","510373","plhygmgtf28","kangaroo","null","stimuli/woods_68.jpg","null","","","","","","","","","","",""
"","","","","","image-keyboard-response","493","2.0.0","511377","plhygmgtf28","kangaroo","null","stimuli/kitchen_42.jpg","null","","","","","","","","","","",""
"","","","","","image-keyboard-response","494","2.0.0","512381","plhygmgtf28","kangaroo","null","stimuli/playground_14.jpg","null","","","","","","","","","","",""
"","","","","","html-keyboard-response","495","2.0.0","513384","plhygmgtf28","kangaroo","null","<p></p>","null","","","","","","","","","","",""
