"success","timeout","failed_images","failed_audio","failed_video","trial_type","trial_index","plugin_version","time_elapsed","random_id","participant","rt","stimulus","response","category","letter","correct_response","correct_response_key","trial_counter","current_image","test_triplet","foil_triplet","correct","firstSequencePaths","secondSequencePaths"
"true","false","[]","[]","[]","preload","0","2.0.0","549","pppnvxzgt5o","A17689315","","","","","","","","","","","","","",""
"true","","","","","fullscreen","1","null","3911","pppnvxzgt5o","A17689315","2355","","","","","","","","","","","","",""
"","","","","","html-keyboard-response","2","2.0.0","4754","pppnvxzgt5o","A17689315","841","Welcome to the experiment. Press any key to begin.","d","","","","","","","","","","",""
"","","","","","survey-text","3","2.0.0","9673","pppnvxzgt5o","A17689315","4916","","{""participant_id"":""A17689315""}","","","","","","","","","","",""
"","","","","","html-keyboard-response","4","2.0.0","11950","pppnvxzgt5o","A17689315","2277","
  <p>For this trial, you will see a series of images.</p>
  <p><b>Press the spacebar whenever you see the same image appear twice in a row.</b></p>
  <p>In other words, whenever the same image repeats back to back, press the spacebar.</p>
  <p>Press any key to begin.</p>","f","","","","","","","","","","",""
"","","","","","image-keyboard-response","5","2.0.0","12955","pppnvxzgt5o","A17689315","null","stimuli/bathroom_12.jpg","null","bathroom","G","non-repeat","null","0","stimuli/bathroom_12.jpg","","","","",""
"","","","","","image-keyboard-response","6","2.0.0","13965","pppnvxzgt5o","A17689315","null","stimuli/woods_13.jpg","null","woods","H","non-repeat","null","1","stimuli/woods_13.jpg","","","","",""
"","","","","","image-keyboard-response","7","2.0.0","14979","pppnvxzgt5o","A17689315","null","stimuli/stream_13.jpg","null","stream","I","non-repeat","null","2","stimuli/stream_13.jpg","","","","",""
"","","","","","image-keyboard-response","8","2.0.0","15992","pppnvxzgt5o","A17689315","null","stimuli/coast_20.jpg","null","coast","A","non-repeat","null","3","stimuli/coast_20.jpg","","","","",""
"","","","","","image-keyboard-response","9","2.0.0","17001","pppnvxzgt5o","A17689315","null","stimuli/bar_56.jpg","null","bar","B","non-repeat","null","4","stimuli/bar_56.jpg","","","","",""
"","","","","","image-keyboard-response","10","2.0.0","18012","pppnvxzgt5o","A17689315","588","stimuli/desert_29.jpg"," ","desert","C","non-repeat","null","5","stimuli/desert_29.jpg","","","","",""
"","","","","","image-keyboard-response","11","2.0.0","19022","pppnvxzgt5o","A17689315","null","stimuli/gym_47.jpg","null","gym","J","non-repeat","null","6","stimuli/gym_47.jpg","","","","",""
"","","","","","image-keyboard-response","12","2.0.0","20031","pppnvxzgt5o","A17689315","null","stimuli/playground_18.jpg","null","playground","K","non-repeat","null","7","stimuli/playground_18.jpg","","","","",""
"","","","","","image-keyboard-response","13","2.0.0","21038","pppnvxzgt5o","A17689315","null","stimuli/street_31.jpg","null","street","L","non-repeat","null","8","stimuli/street_31.jpg","","","","",""
"","","","","","image-keyboard-response","14","2.0.0","22046","pppnvxzgt5o","A17689315","null","stimuli/bridge_21.jpg","null","bridge","D","non-repeat","null","9","stimuli/bridge_21.jpg","","","","",""
"","","","","","image-keyboard-response","15","2.0.0","23052","pppnvxzgt5o","A17689315","null","stimuli/field_14.jpg","null","field","E","non-repeat","null","10","stimuli/field_14.jpg","","","","",""
"","","","","","image-keyboard-response","16","2.0.0","24058","pppnvxzgt5o","A17689315","null","stimuli/kitchen_33.jpg","null","kitchen","F","non-repeat","null","11","stimuli/kitchen_33.jpg","","","","",""
"","","","","","image-keyboard-response","17","2.0.0","25066","pppnvxzgt5o","A17689315","146","stimuli/gym_47.jpg"," ","gym","J","non-repeat","null","12","stimuli/gym_47.jpg","","","","",""
"","","","","","image-keyboard-response","18","2.0.0","26076","pppnvxzgt5o","A17689315","566","stimuli/playground_18.jpg"," ","playground","K","non-repeat","null","13","stimuli/playground_18.jpg","","","","",""
"","","","","","image-keyboard-response","19","2.0.0","27086","pppnvxzgt5o","A17689315","640","stimuli/street_31.jpg"," ","street","L","non-repeat","null","14","stimuli/street_31.jpg","","","","",""
"","","","","","image-keyboard-response","20","2.0.0","28095","pppnvxzgt5o","A17689315","null","stimuli/coast_20.jpg","null","coast","A","non-repeat","null","15","stimuli/coast_20.jpg","","","","",""
"","","","","","image-keyboard-response","21","2.0.0","29108","pppnvxzgt5o","A17689315","421","stimuli/coast_20.jpg"," ","coast","A","repeat"," ","15","","","","","",""
"","","","","","image-keyboard-response","22","2.0.0","30118","pppnvxzgt5o","A17689315","813","stimuli/bar_56.jpg"," ","bar","B","non-repeat","null","16","stimuli/bar_56.jpg","","","","",""
"","","","","","image-keyboard-response","23","2.0.0","31120","pppnvxzgt5o","A17689315","479","stimuli/desert_29.jpg"," ","desert","C","non-repeat","null","17","stimuli/desert_29.jpg","","","","",""
"","","","","","image-keyboard-response","24","2.0.0","32122","pppnvxzgt5o","A17689315","null","stimuli/bathroom_12.jpg","null","bathroom","G","non-repeat","null","18","stimuli/bathroom_12.jpg","","","","",""
"","","","","","image-keyboard-response","25","2.0.0","33124","pppnvxzgt5o","A17689315","null","stimuli/woods_13.jpg","null","woods","H","non-repeat","null","19","stimuli/woods_13.jpg","","","","",""
"","","","","","image-keyboard-response","26","2.0.0","34125","pppnvxzgt5o","A17689315","null","stimuli/stream_13.jpg","null","stream","I","non-repeat","null","20","stimuli/stream_13.jpg","","","","",""
"","","","","","image-keyboard-response","27","2.0.0","35127","pppnvxzgt5o","A17689315","610","stimuli/stream_13.jpg"," ","stream","I","repeat"," ","20","","","","","",""
"","","","","","image-keyboard-response","28","2.0.0","36139","pppnvxzgt5o","A17689315","563","stimuli/coast_20.jpg"," ","coast","A","non-repeat","null","21","stimuli/coast_20.jpg","","","","",""
"","","","","","image-keyboard-response","29","2.0.0","37141","pppnvxzgt5o","A17689315","336","stimuli/coast_20.jpg"," ","coast","A","repeat"," ","21","","","","","",""
"","","","","","image-keyboard-response","30","2.0.0","38143","pppnvxzgt5o","A17689315","664","stimuli/bar_56.jpg"," ","bar","B","non-repeat","null","22","stimuli/bar_56.jpg","","","","",""
"","","","","","image-keyboard-response","31","2.0.0","39146","pppnvxzgt5o","A17689315","null","stimuli/desert_29.jpg","null","desert","C","non-repeat","null","23","stimuli/desert_29.jpg","","","","",""
"","","","","","image-keyboard-response","32","2.0.0","40147","pppnvxzgt5o","A17689315","189","stimuli/desert_29.jpg"," ","desert","C","repeat"," ","23","","","","","",""
"","","","","","image-keyboard-response","33","2.0.0","41149","pppnvxzgt5o","A17689315","null","stimuli/bridge_21.jpg","null","bridge","D","non-repeat","null","24","stimuli/bridge_21.jpg","","","","",""
"","","","","","image-keyboard-response","34","2.0.0","42152","pppnvxzgt5o","A17689315","null","stimuli/field_14.jpg","null","field","E","non-repeat","null","25","stimuli/field_14.jpg","","","","",""
"","","","","","image-keyboard-response","35","2.0.0","43153","pppnvxzgt5o","A17689315","null","stimuli/kitchen_33.jpg","null","kitchen","F","non-repeat","null","26","stimuli/kitchen_33.jpg","","","","",""
"","","","","","image-keyboard-response","36","2.0.0","44169","pppnvxzgt5o","A17689315","null","stimuli/bathroom_12.jpg","null","bathroom","G","non-repeat","null","27","stimuli/bathroom_12.jpg","","","","",""
"","","","","","image-keyboard-response","37","2.0.0","45172","pppnvxzgt5o","A17689315","null","stimuli/woods_13.jpg","null","woods","H","non-repeat","null","28","stimuli/woods_13.jpg","","","","",""
"","","","","","image-keyboard-response","38","2.0.0","46173","pppnvxzgt5o","A17689315","null","stimuli/stream_13.jpg","null","stream","I","non-repeat","null","29","stimuli/stream_13.jpg","","","","",""
"","","","","","image-keyboard-response","39","2.0.0","47175","pppnvxzgt5o","A17689315","null","stimuli/coast_20.jpg","null","coast","A","non-repeat","null","30","stimuli/coast_20.jpg","","","","",""
"","","","","","image-keyboard-response","40","2.0.0","48177","pppnvxzgt5o","A17689315","null","stimuli/bar_56.jpg","null","bar","B","non-repeat","null","31","stimuli/bar_56.jpg","","","","",""
"","","","","","image-keyboard-response","41","2.0.0","49179","pppnvxzgt5o","A17689315","null","stimuli/desert_29.jpg","null","desert","C","non-repeat","null","32","stimuli/desert_29.jpg","","","","",""
"","","","","","image-keyboard-response","42","2.0.0","50181","pppnvxzgt5o","A17689315","null","stimuli/bridge_21.jpg","null","bridge","D","non-repeat","null","33","stimuli/bridge_21.jpg","","","","",""
"","","","","","image-keyboard-response","43","2.0.0","51183","pppnvxzgt5o","A17689315","null","stimuli/field_14.jpg","null","field","E","non-repeat","null","34","stimuli/field_14.jpg","","","","",""
"","","","","","image-keyboard-response","44","2.0.0","52185","pppnvxzgt5o","A17689315","null","stimuli/kitchen_33.jpg","null","kitchen","F","non-repeat","null","35","stimuli/kitchen_33.jpg","","","","",""
"","","","","","image-keyboard-response","45","2.0.0","53187","pppnvxzgt5o","A17689315","null","stimuli/bathroom_12.jpg","null","bathroom","G","non-repeat","null","36","stimuli/bathroom_12.jpg","","","","",""
"","","","","","image-keyboard-response","46","2.0.0","54189","pppnvxzgt5o","A17689315","null","stimuli/woods_13.jpg","null","woods","H","non-repeat","null","37","stimuli/woods_13.jpg","","","","",""
"","","","","","image-keyboard-response","47","2.0.0","55191","pppnvxzgt5o","A17689315","null","stimuli/stream_13.jpg","null","stream","I","non-repeat","null","38","stimuli/stream_13.jpg","","","","",""
"","","","","","image-keyboard-response","48","2.0.0","56194","pppnvxzgt5o","A17689315","null","stimuli/coast_20.jpg","null","coast","A","non-repeat","null","39","stimuli/coast_20.jpg","","","","",""
"","","","","","image-keyboard-response","49","2.0.0","57202","pppnvxzgt5o","A17689315","null","stimuli/bar_56.jpg","null","bar","B","non-repeat","null","40","stimuli/bar_56.jpg","","","","",""
"","","","","","image-keyboard-response","50","2.0.0","58210","pppnvxzgt5o","A17689315","null","stimuli/desert_29.jpg","null","desert","C","non-repeat","null","41","stimuli/desert_29.jpg","","","","",""
"","","","","","image-keyboard-response","51","2.0.0","59212","pppnvxzgt5o","A17689315","null","stimuli/bathroom_12.jpg","null","bathroom","G","non-repeat","null","42","stimuli/bathroom_12.jpg","","","","",""
"","","","","","image-keyboard-response","52","2.0.0","60214","pppnvxzgt5o","A17689315","null","stimuli/woods_13.jpg","null","woods","H","non-repeat","null","43","stimuli/woods_13.jpg","","","","",""
"","","","","","image-keyboard-response","53","2.0.0","61215","pppnvxzgt5o","A17689315","null","stimuli/stream_13.jpg","null","stream","I","non-repeat","null","44","stimuli/stream_13.jpg","","","","",""
"","","","","","image-keyboard-response","54","2.0.0","62217","pppnvxzgt5o","A17689315","null","stimuli/bridge_21.jpg","null","bridge","D","non-repeat","null","45","stimuli/bridge_21.jpg","","","","",""
"","","","","","image-keyboard-response","55","2.0.0","63218","pppnvxzgt5o","A17689315","null","stimuli/field_14.jpg","null","field","E","non-repeat","null","46","stimuli/field_14.jpg","","","","",""
"","","","","","image-keyboard-response","56","2.0.0","64220","pppnvxzgt5o","A17689315","null","stimuli/kitchen_33.jpg","null","kitchen","F","non-repeat","null","47","stimuli/kitchen_33.jpg","","","","",""
"","","","","","image-keyboard-response","57","2.0.0","65221","pppnvxzgt5o","A17689315","505","stimuli/kitchen_33.jpg"," ","kitchen","F","repeat"," ","47","","","","","",""
"","","","","","image-keyboard-response","58","2.0.0","66223","pppnvxzgt5o","A17689315","null","stimuli/bathroom_12.jpg","null","bathroom","G","non-repeat","null","48","stimuli/bathroom_12.jpg","","","","",""
"","","","","","image-keyboard-response","59","2.0.0","67225","pppnvxzgt5o","A17689315","null","stimuli/bathroom_12.jpg","null","bathroom","G","repeat"," ","48","","","","","",""
"","","","","","image-keyboard-response","60","2.0.0","68228","pppnvxzgt5o","A17689315","null","stimuli/woods_13.jpg","null","woods","H","non-repeat","null","49","stimuli/woods_13.jpg","","","","",""
"","","","","","image-keyboard-response","61","2.0.0","69229","pppnvxzgt5o","A17689315","null","stimuli/stream_13.jpg","null","stream","I","non-repeat","null","50","stimuli/stream_13.jpg","","","","",""
"","","","","","image-keyboard-response","62","2.0.0","70231","pppnvxzgt5o","A17689315","465","stimuli/stream_13.jpg"," ","stream","I","repeat"," ","50","","","","","",""
"","","","","","image-keyboard-response","63","2.0.0","71239","pppnvxzgt5o","A17689315","null","stimuli/coast_20.jpg","null","coast","A","non-repeat","null","51","stimuli/coast_20.jpg","","","","",""
"","","","","","image-keyboard-response","64","2.0.0","72240","pppnvxzgt5o","A17689315","323","stimuli/coast_20.jpg"," ","coast","A","repeat"," ","51","","","","","",""
"","","","","","image-keyboard-response","65","2.0.0","73243","pppnvxzgt5o","A17689315","null","stimuli/bar_56.jpg","null","bar","B","non-repeat","null","52","stimuli/bar_56.jpg","","","","",""
"","","","","","image-keyboard-response","66","2.0.0","74244","pppnvxzgt5o","A17689315","null","stimuli/desert_29.jpg","null","desert","C","non-repeat","null","53","stimuli/desert_29.jpg","","","","",""
"","","","","","image-keyboard-response","67","2.0.0","75246","pppnvxzgt5o","A17689315","null","stimuli/bridge_21.jpg","null","bridge","D","non-repeat","null","54","stimuli/bridge_21.jpg","","","","",""
"","","","","","image-keyboard-response","68","2.0.0","76247","pppnvxzgt5o","A17689315","null","stimuli/field_14.jpg","null","field","E","non-repeat","null","55","stimuli/field_14.jpg","","","","",""
"","","","","","image-keyboard-response","69","2.0.0","77249","pppnvxzgt5o","A17689315","null","stimuli/kitchen_33.jpg","null","kitchen","F","non-repeat","null","56","stimuli/kitchen_33.jpg","","","","",""
"","","","","","image-keyboard-response","70","2.0.0","78251","pppnvxzgt5o","A17689315","523","stimuli/kitchen_33.jpg"," ","kitchen","F","repeat"," ","56","","","","","",""
"","","","","","image-keyboard-response","71","2.0.0","79253","pppnvxzgt5o","A17689315","null","stimuli/gym_47.jpg","null","gym","J","non-repeat","null","57","stimuli/gym_47.jpg","","","","",""
"","","","","","image-keyboard-response","72","2.0.0","80254","pppnvxzgt5o","A17689315","null","stimuli/playground_18.jpg","null","playground","K","non-repeat","null","58","stimuli/playground_18.jpg","","","","",""
"","","","","","image-keyboard-response","73","2.0.0","81256","pppnvxzgt5o","A17689315","359","stimuli/street_31.jpg"," ","street","L","non-repeat","null","59","stimuli/street_31.jpg","","","","",""
"","","","","","image-keyboard-response","74","2.0.0","82258","pppnvxzgt5o","A17689315","null","stimuli/bathroom_12.jpg","null","bathroom","G","non-repeat","null","60","stimuli/bathroom_12.jpg","","","","",""
"","","","","","image-keyboard-response","75","2.0.0","83260","pppnvxzgt5o","A17689315","null","stimuli/bathroom_12.jpg","null","bathroom","G","repeat"," ","60","","","","","",""
"","","","","","image-keyboard-response","76","2.0.0","84262","pppnvxzgt5o","A17689315","null","stimuli/woods_13.jpg","null","woods","H","non-repeat","null","61","stimuli/woods_13.jpg","","","","",""
"","","","","","image-keyboard-response","77","2.0.0","85263","pppnvxzgt5o","A17689315","null","stimuli/stream_13.jpg","null","stream","I","non-repeat","null","62","stimuli/stream_13.jpg","","","","",""
"","","","","","image-keyboard-response","78","2.0.0","86265","pppnvxzgt5o","A17689315","null","stimuli/gym_47.jpg","null","gym","J","non-repeat","null","63","stimuli/gym_47.jpg","","","","",""
"","","","","","image-keyboard-response","79","2.0.0","87267","pppnvxzgt5o","A17689315","null","stimuli/playground_18.jpg","null","playground","K","non-repeat","null","64","stimuli/playground_18.jpg","","","","",""
"","","","","","image-keyboard-response","80","2.0.0","88278","pppnvxzgt5o","A17689315","null","stimuli/street_31.jpg","null","street","L","non-repeat","null","65","stimuli/street_31.jpg","","","","",""
"","","","","","image-keyboard-response","81","2.0.0","89279","pppnvxzgt5o","A17689315","null","stimuli/bridge_21.jpg","null","bridge","D","non-repeat","null","66","stimuli/bridge_21.jpg","","","","",""
"","","","","","image-keyboard-response","82","2.0.0","90281","pppnvxzgt5o","A17689315","null","stimuli/field_14.jpg","null","field","E","non-repeat","null","67","stimuli/field_14.jpg","","","","",""
"","","","","","image-keyboard-response","83","2.0.0","91283","pppnvxzgt5o","A17689315","null","stimuli/kitchen_33.jpg","null","kitchen","F","non-repeat","null","68","stimuli/kitchen_33.jpg","","","","",""
"","","","","","image-keyboard-response","84","2.0.0","92284","pppnvxzgt5o","A17689315","405","stimuli/kitchen_33.jpg"," ","kitchen","F","repeat"," ","68","","","","","",""
"","","","","","image-keyboard-response","85","2.0.0","93286","pppnvxzgt5o","A17689315","null","stimuli/gym_47.jpg","null","gym","J","non-repeat","null","69","stimuli/gym_47.jpg","","","","",""
"","","","","","image-keyboard-response","86","2.0.0","94288","pppnvxzgt5o","A17689315","null","stimuli/playground_18.jpg","null","playground","K","non-repeat","null","70","stimuli/playground_18.jpg","","","","",""
"","","","","","image-keyboard-response","87","2.0.0","95290","pppnvxzgt5o","A17689315","null","stimuli/street_31.jpg","null","street","L","non-repeat","null","71","stimuli/street_31.jpg","","","","",""
"","","","","","image-keyboard-response","88","2.0.0","96291","pppnvxzgt5o","A17689315","null","stimuli/bridge_21.jpg","null","bridge","D","non-repeat","null","72","stimuli/bridge_21.jpg","","","","",""
"","","","","","image-keyboard-response","89","2.0.0","97293","pppnvxzgt5o","A17689315","null","stimuli/field_14.jpg","null","field","E","non-repeat","null","73","stimuli/field_14.jpg","","","","",""
"","","","","","image-keyboard-response","90","2.0.0","98294","pppnvxzgt5o","A17689315","null","stimuli/kitchen_33.jpg","null","kitchen","F","non-repeat","null","74","stimuli/kitchen_33.jpg","","","","",""
"","","","","","image-keyboard-response","91","2.0.0","99295","pppnvxzgt5o","A17689315","null","stimuli/bathroom_12.jpg","null","bathroom","G","non-repeat","null","75","stimuli/bathroom_12.jpg","","","","",""
"","","","","","image-keyboard-response","92","2.0.0","100299","pppnvxzgt5o","A17689315","null","stimuli/woods_13.jpg","null","woods","H","non-repeat","null","76","stimuli/woods_13.jpg","","","","",""
"","","","","","image-keyboard-response","93","2.0.0","101300","pppnvxzgt5o","A17689315","null","stimuli/stream_13.jpg","null","stream","I","non-repeat","null","77","stimuli/stream_13.jpg","","","","",""
"","","","","","image-keyboard-response","94","2.0.0","102314","pppnvxzgt5o","A17689315","null","stimuli/bridge_21.jpg","null","bridge","D","non-repeat","null","78","stimuli/bridge_21.jpg","","","","",""
"","","","","","image-keyboard-response","95","2.0.0","103316","pppnvxzgt5o","A17689315","null","stimuli/field_14.jpg","null","field","E","non-repeat","null","79","stimuli/field_14.jpg","","","","",""
"","","","","","image-keyboard-response","96","2.0.0","104317","pppnvxzgt5o","A17689315","null","stimuli/kitchen_33.jpg","null","kitchen","F","non-repeat","null","80","stimuli/kitchen_33.jpg","","","","",""
"","","","","","image-keyboard-response","97","2.0.0","105319","pppnvxzgt5o","A17689315","345","stimuli/kitchen_33.jpg"," ","kitchen","F","repeat"," ","80","","","","","",""
"","","","","","image-keyboard-response","98","2.0.0","106321","pppnvxzgt5o","A17689315","null","stimuli/coast_20.jpg","null","coast","A","non-repeat","null","81","stimuli/coast_20.jpg","","","","",""
"","","","","","image-keyboard-response","99","2.0.0","107322","pppnvxzgt5o","A17689315","null","stimuli/bar_56.jpg","null","bar","B","non-repeat","null","82","stimuli/bar_56.jpg","","","","",""
"","","","","","image-keyboard-response","100","2.0.0","108325","pppnvxzgt5o","A17689315","null","stimuli/desert_29.jpg","null","desert","C","non-repeat","null","83","stimuli/desert_29.jpg","","","","",""
"","","","","","image-keyboard-response","101","2.0.0","109327","pppnvxzgt5o","A17689315","null","stimuli/bridge_21.jpg","null","bridge","D","non-repeat","null","84","stimuli/bridge_21.jpg","","","","",""
"","","","","","image-keyboard-response","102","2.0.0","110329","pppnvxzgt5o","A17689315","558","stimuli/bridge_21.jpg"," ","bridge","D","repeat"," ","84","","","","","",""
"","","","","","image-keyboard-response","103","2.0.0","111330","pppnvxzgt5o","A17689315","null","stimuli/field_14.jpg","null","field","E","non-repeat","null","85","stimuli/field_14.jpg","","","","",""
"","","","","","image-keyboard-response","104","2.0.0","112332","pppnvxzgt5o","A17689315","null","stimuli/kitchen_33.jpg","null","kitchen","F","non-repeat","null","86","stimuli/kitchen_33.jpg","","","","",""
"","","","","","image-keyboard-response","105","2.0.0","113333","pppnvxzgt5o","A17689315","null","stimuli/gym_47.jpg","null","gym","J","non-repeat","null","87","stimuli/gym_47.jpg","","","","",""
"","","","","","image-keyboard-response","106","2.0.0","114336","pppnvxzgt5o","A17689315","null","stimuli/playground_18.jpg","null","playground","K","non-repeat","null","88","stimuli/playground_18.jpg","","","","",""
"","","","","","image-keyboard-response","107","2.0.0","115337","pppnvxzgt5o","A17689315","null","stimuli/street_31.jpg","null","street","L","non-repeat","null","89","stimuli/street_31.jpg","","","","",""
"","","","","","image-keyboard-response","108","2.0.0","116342","pppnvxzgt5o","A17689315","null","stimuli/bridge_21.jpg","null","bridge","D","non-repeat","null","90","stimuli/bridge_21.jpg","","","","",""
"","","","","","image-keyboard-response","109","2.0.0","117345","pppnvxzgt5o","A17689315","null","stimuli/field_14.jpg","null","field","E","non-repeat","null","91","stimuli/field_14.jpg","","","","",""
"","","","","","image-keyboard-response","110","2.0.0","118347","pppnvxzgt5o","A17689315","null","stimuli/kitchen_33.jpg","null","kitchen","F","non-repeat","null","92","stimuli/kitchen_33.jpg","","","","",""
"","","","","","image-keyboard-response","111","2.0.0","119348","pppnvxzgt5o","A17689315","null","stimuli/bathroom_12.jpg","null","bathroom","G","non-repeat","null","93","stimuli/bathroom_12.jpg","","","","",""
"","","","","","image-keyboard-response","112","2.0.0","120351","pppnvxzgt5o","A17689315","null","stimuli/woods_13.jpg","null","woods","H","non-repeat","null","94","stimuli/woods_13.jpg","","","","",""
"","","","","","image-keyboard-response","113","2.0.0","121352","pppnvxzgt5o","A17689315","null","stimuli/stream_13.jpg","null","stream","I","non-repeat","null","95","stimuli/stream_13.jpg","","","","",""
"","","","","","image-keyboard-response","114","2.0.0","122354","pppnvxzgt5o","A17689315","607","stimuli/stream_13.jpg"," ","stream","I","repeat"," ","95","","","","","",""
"","","","","","image-keyboard-response","115","2.0.0","123356","pppnvxzgt5o","A17689315","null","stimuli/bridge_21.jpg","null","bridge","D","non-repeat","null","96","stimuli/bridge_21.jpg","","","","",""
"","","","","","image-keyboard-response","116","2.0.0","124358","pppnvxzgt5o","A17689315","288","stimuli/bridge_21.jpg"," ","bridge","D","repeat"," ","96","","","","","",""
"","","","","","image-keyboard-response","117","2.0.0","125359","pppnvxzgt5o","A17689315","null","stimuli/field_14.jpg","null","field","E","non-repeat","null","97","stimuli/field_14.jpg","","","","",""
"","","","","","image-keyboard-response","118","2.0.0","126361","pppnvxzgt5o","A17689315","null","stimuli/kitchen_33.jpg","null","kitchen","F","non-repeat","null","98","stimuli/kitchen_33.jpg","","","","",""
"","","","","","image-keyboard-response","119","2.0.0","127362","pppnvxzgt5o","A17689315","null","stimuli/bathroom_12.jpg","null","bathroom","G","non-repeat","null","99","stimuli/bathroom_12.jpg","","","","",""
"","","","","","image-keyboard-response","120","2.0.0","128364","pppnvxzgt5o","A17689315","null","stimuli/bathroom_12.jpg","null","bathroom","G","repeat"," ","99","","","","","",""
"","","","","","image-keyboard-response","121","2.0.0","129365","pppnvxzgt5o","A17689315","null","stimuli/woods_13.jpg","null","woods","H","non-repeat","null","100","stimuli/woods_13.jpg","","","","",""
"","","","","","image-keyboard-response","122","2.0.0","130366","pppnvxzgt5o","A17689315","null","stimuli/stream_13.jpg","null","stream","I","non-repeat","null","101","stimuli/stream_13.jpg","","","","",""
"","","","","","image-keyboard-response","123","2.0.0","131369","pppnvxzgt5o","A17689315","null","stimuli/bridge_21.jpg","null","bridge","D","non-repeat","null","102","stimuli/bridge_21.jpg","","","","",""
"","","","","","image-keyboard-response","124","2.0.0","132371","pppnvxzgt5o","A17689315","null","stimuli/field_14.jpg","null","field","E","non-repeat","null","103","stimuli/field_14.jpg","","","","",""
"","","","","","image-keyboard-response","125","2.0.0","133373","pppnvxzgt5o","A17689315","null","stimuli/kitchen_33.jpg","null","kitchen","F","non-repeat","null","104","stimuli/kitchen_33.jpg","","","","",""
"","","","","","image-keyboard-response","126","2.0.0","134376","pppnvxzgt5o","A17689315","null","stimuli/kitchen_33.jpg","null","kitchen","F","repeat"," ","104","","","","","",""
"","","","","","image-keyboard-response","127","2.0.0","135377","pppnvxzgt5o","A17689315","null","stimuli/coast_20.jpg","null","coast","A","non-repeat","null","105","stimuli/coast_20.jpg","","","","",""
"","","","","","image-keyboard-response","128","2.0.0","136379","pppnvxzgt5o","A17689315","null","stimuli/bar_56.jpg","null","bar","B","non-repeat","null","106","stimuli/bar_56.jpg","","","","",""
"","","","","","image-keyboard-response","129","2.0.0","137381","pppnvxzgt5o","A17689315","null","stimuli/desert_29.jpg","null","desert","C","non-repeat","null","107","stimuli/desert_29.jpg","","","","",""
"","","","","","image-keyboard-response","130","2.0.0","138383","pppnvxzgt5o","A17689315","null","stimuli/desert_29.jpg","null","desert","C","repeat"," ","107","","","","","",""
"","","","","","image-keyboard-response","131","2.0.0","139385","pppnvxzgt5o","A17689315","null","stimuli/gym_47.jpg","null","gym","J","non-repeat","null","108","stimuli/gym_47.jpg","","","","",""
"","","","","","image-keyboard-response","132","2.0.0","140387","pppnvxzgt5o","A17689315","null","stimuli/gym_47.jpg","null","gym","J","repeat"," ","108","","","","","",""
"","","","","","image-keyboard-response","133","2.0.0","141389","pppnvxzgt5o","A17689315","null","stimuli/playground_18.jpg","null","playground","K","non-repeat","null","109","stimuli/playground_18.jpg","","","","",""
"","","","","","image-keyboard-response","134","2.0.0","142391","pppnvxzgt5o","A17689315","null","stimuli/street_31.jpg","null","street","L","non-repeat","null","110","stimuli/street_31.jpg","","","","",""
"","","","","","image-keyboard-response","135","2.0.0","143392","pppnvxzgt5o","A17689315","null","stimuli/coast_20.jpg","null","coast","A","non-repeat","null","111","stimuli/coast_20.jpg","","","","",""
"","","","","","image-keyboard-response","136","2.0.0","144394","pppnvxzgt5o","A17689315","null","stimuli/bar_56.jpg","null","bar","B","non-repeat","null","112","stimuli/bar_56.jpg","","","","",""
"","","","","","image-keyboard-response","137","2.0.0","145396","pppnvxzgt5o","A17689315","null","stimuli/desert_29.jpg","null","desert","C","non-repeat","null","113","stimuli/desert_29.jpg","","","","",""
"","","","","","image-keyboard-response","138","2.0.0","146398","pppnvxzgt5o","A17689315","null","stimuli/bathroom_12.jpg","null","bathroom","G","non-repeat","null","114","stimuli/bathroom_12.jpg","","","","",""
"","","","","","image-keyboard-response","139","2.0.0","147399","pppnvxzgt5o","A17689315","null","stimuli/bathroom_12.jpg","null","bathroom","G","repeat"," ","114","","","","","",""
"","","","","","image-keyboard-response","140","2.0.0","148401","pppnvxzgt5o","A17689315","null","stimuli/woods_13.jpg","null","woods","H","non-repeat","null","115","stimuli/woods_13.jpg","","","","",""
"","","","","","image-keyboard-response","141","2.0.0","149403","pppnvxzgt5o","A17689315","null","stimuli/stream_13.jpg","null","stream","I","non-repeat","null","116","stimuli/stream_13.jpg","","","","",""
"","","","","","image-keyboard-response","142","2.0.0","150406","pppnvxzgt5o","A17689315","null","stimuli/gym_47.jpg","null","gym","J","non-repeat","null","117","stimuli/gym_47.jpg","","","","",""
"","","","","","image-keyboard-response","143","2.0.0","151408","pppnvxzgt5o","A17689315","null","stimuli/gym_47.jpg","null","gym","J","repeat"," ","117","","","","","",""
"","","","","","image-keyboard-response","144","2.0.0","152410","pppnvxzgt5o","A17689315","null","stimuli/playground_18.jpg","null","playground","K","non-repeat","null","118","stimuli/playground_18.jpg","","","","",""
"","","","","","image-keyboard-response","145","2.0.0","153412","pppnvxzgt5o","A17689315","null","stimuli/street_31.jpg","null","street","L","non-repeat","null","119","stimuli/street_31.jpg","","","","",""
"","","","","","image-keyboard-response","146","2.0.0","154414","pppnvxzgt5o","A17689315","null","stimuli/bridge_21.jpg","null","bridge","D","non-repeat","null","120","stimuli/bridge_21.jpg","","","","",""
"","","","","","image-keyboard-response","147","2.0.0","155416","pppnvxzgt5o","A17689315","null","stimuli/field_14.jpg","null","field","E","non-repeat","null","121","stimuli/field_14.jpg","","","","",""
"","","","","","image-keyboard-response","148","2.0.0","156418","pppnvxzgt5o","A17689315","null","stimuli/kitchen_33.jpg","null","kitchen","F","non-repeat","null","122","stimuli/kitchen_33.jpg","","","","",""
"","","","","","image-keyboard-response","149","2.0.0","157421","pppnvxzgt5o","A17689315","321","stimuli/kitchen_33.jpg"," ","kitchen","F","repeat"," ","122","","","","","",""
"","","","","","image-keyboard-response","150","2.0.0","158422","pppnvxzgt5o","A17689315","null","stimuli/gym_47.jpg","null","gym","J","non-repeat","null","123","stimuli/gym_47.jpg","","","","",""
"","","","","","image-keyboard-response","151","2.0.0","159424","pppnvxzgt5o","A17689315","null","stimuli/playground_18.jpg","null","playground","K","non-repeat","null","124","stimuli/playground_18.jpg","","","","",""
"","","","","","image-keyboard-response","152","2.0.0","160426","pppnvxzgt5o","A17689315","null","stimuli/street_31.jpg","null","street","L","non-repeat","null","125","stimuli/street_31.jpg","","","","",""
"","","","","","image-keyboard-response","153","2.0.0","161429","pppnvxzgt5o","A17689315","null","stimuli/coast_20.jpg","null","coast","A","non-repeat","null","126","stimuli/coast_20.jpg","","","","",""
"","","","","","image-keyboard-response","154","2.0.0","162430","pppnvxzgt5o","A17689315","445","stimuli/coast_20.jpg"," ","coast","A","repeat"," ","126","","","","","",""
"","","","","","image-keyboard-response","155","2.0.0","163433","pppnvxzgt5o","A17689315","null","stimuli/bar_56.jpg","null","bar","B","non-repeat","null","127","stimuli/bar_56.jpg","","","","",""
"","","","","","image-keyboard-response","156","2.0.0","164436","pppnvxzgt5o","A17689315","null","stimuli/desert_29.jpg","null","desert","C","non-repeat","null","128","stimuli/desert_29.jpg","","","","",""
"","","","","","image-keyboard-response","157","2.0.0","165438","pppnvxzgt5o","A17689315","null","stimuli/gym_47.jpg","null","gym","J","non-repeat","null","129","stimuli/gym_47.jpg","","","","",""
"","","","","","image-keyboard-response","158","2.0.0","166440","pppnvxzgt5o","A17689315","null","stimuli/playground_18.jpg","null","playground","K","non-repeat","null","130","stimuli/playground_18.jpg","","","","",""
"","","","","","image-keyboard-response","159","2.0.0","167442","pppnvxzgt5o","A17689315","null","stimuli/street_31.jpg","null","street","L","non-repeat","null","131","stimuli/street_31.jpg","","","","",""
"","","","","","image-keyboard-response","160","2.0.0","168444","pppnvxzgt5o","A17689315","null","stimuli/bridge_21.jpg","null","bridge","D","non-repeat","null","132","stimuli/bridge_21.jpg","","","","",""
"","","","","","image-keyboard-response","161","2.0.0","169447","pppnvxzgt5o","A17689315","null","stimuli/field_14.jpg","null","field","E","non-repeat","null","133","stimuli/field_14.jpg","","","","",""
"","","","","","image-keyboard-response","162","2.0.0","170448","pppnvxzgt5o","A17689315","null","stimuli/kitchen_33.jpg","null","kitchen","F","non-repeat","null","134","stimuli/kitchen_33.jpg","","","","",""
"","","","","","image-keyboard-response","163","2.0.0","171450","pppnvxzgt5o","A17689315","null","stimuli/bathroom_12.jpg","null","bathroom","G","non-repeat","null","135","stimuli/bathroom_12.jpg","","","","",""
"","","","","","image-keyboard-response","164","2.0.0","172451","pppnvxzgt5o","A17689315","null","stimuli/woods_13.jpg","null","woods","H","non-repeat","null","136","stimuli/woods_13.jpg","","","","",""
"","","","","","image-keyboard-response","165","2.0.0","173453","pppnvxzgt5o","A17689315","null","stimuli/stream_13.jpg","null","stream","I","non-repeat","null","137","stimuli/stream_13.jpg","","","","",""
"","","","","","image-keyboard-response","166","2.0.0","174455","pppnvxzgt5o","A17689315","null","stimuli/bridge_21.jpg","null","bridge","D","non-repeat","null","138","stimuli/bridge_21.jpg","","","","",""
"","","","","","image-keyboard-response","167","2.0.0","175457","pppnvxzgt5o","A17689315","null","stimuli/field_14.jpg","null","field","E","non-repeat","null","139","stimuli/field_14.jpg","","","","",""
"","","","","","image-keyboard-response","168","2.0.0","176459","pppnvxzgt5o","A17689315","null","stimuli/kitchen_33.jpg","null","kitchen","F","non-repeat","null","140","stimuli/kitchen_33.jpg","","","","",""
"","","","","","image-keyboard-response","169","2.0.0","177467","pppnvxzgt5o","A17689315","null","stimuli/bathroom_12.jpg","null","bathroom","G","non-repeat","null","141","stimuli/bathroom_12.jpg","","","","",""
"","","","","","image-keyboard-response","170","2.0.0","178469","pppnvxzgt5o","A17689315","null","stimuli/woods_13.jpg","null","woods","H","non-repeat","null","142","stimuli/woods_13.jpg","","","","",""
"","","","","","image-keyboard-response","171","2.0.0","179470","pppnvxzgt5o","A17689315","null","stimuli/stream_13.jpg","null","stream","I","non-repeat","null","143","stimuli/stream_13.jpg","","","","",""
"","","","","","image-keyboard-response","172","2.0.0","180472","pppnvxzgt5o","A17689315","null","stimuli/gym_47.jpg","null","gym","J","non-repeat","null","144","stimuli/gym_47.jpg","","","","",""
"","","","","","image-keyboard-response","173","2.0.0","181474","pppnvxzgt5o","A17689315","null","stimuli/playground_18.jpg","null","playground","K","non-repeat","null","145","stimuli/playground_18.jpg","","","","",""
"","","","","","image-keyboard-response","174","2.0.0","182475","pppnvxzgt5o","A17689315","null","stimuli/street_31.jpg","null","street","L","non-repeat","null","146","stimuli/street_31.jpg","","","","",""
"","","","","","image-keyboard-response","175","2.0.0","183478","pppnvxzgt5o","A17689315","null","stimuli/coast_20.jpg","null","coast","A","non-repeat","null","147","stimuli/coast_20.jpg","","","","",""
"","","","","","image-keyboard-response","176","2.0.0","184479","pppnvxzgt5o","A17689315","null","stimuli/bar_56.jpg","null","bar","B","non-repeat","null","148","stimuli/bar_56.jpg","","","","",""
"","","","","","image-keyboard-response","177","2.0.0","185482","pppnvxzgt5o","A17689315","null","stimuli/desert_29.jpg","null","desert","C","non-repeat","null","149","stimuli/desert_29.jpg","","","","",""
"","","","","","image-keyboard-response","178","2.0.0","186485","pppnvxzgt5o","A17689315","null","stimuli/bridge_21.jpg","null","bridge","D","non-repeat","null","150","stimuli/bridge_21.jpg","","","","",""
"","","","","","image-keyboard-response","179","2.0.0","187486","pppnvxzgt5o","A17689315","null","stimuli/field_14.jpg","null","field","E","non-repeat","null","151","stimuli/field_14.jpg","","","","",""
"","","","","","image-keyboard-response","180","2.0.0","188489","pppnvxzgt5o","A17689315","null","stimuli/kitchen_33.jpg","null","kitchen","F","non-repeat","null","152","stimuli/kitchen_33.jpg","","","","",""
"","","","","","image-keyboard-response","181","2.0.0","189490","pppnvxzgt5o","A17689315","null","stimuli/coast_20.jpg","null","coast","A","non-repeat","null","153","stimuli/coast_20.jpg","","","","",""
"","","","","","image-keyboard-response","182","2.0.0","190493","pppnvxzgt5o","A17689315","300","stimuli/coast_20.jpg"," ","coast","A","repeat"," ","153","","","","","",""
"","","","","","image-keyboard-response","183","2.0.0","191495","pppnvxzgt5o","A17689315","null","stimuli/bar_56.jpg","null","bar","B","non-repeat","null","154","stimuli/bar_56.jpg","","","","",""
"","","","","","image-keyboard-response","184","2.0.0","192496","pppnvxzgt5o","A17689315","null","stimuli/desert_29.jpg","null","desert","C","non-repeat","null","155","stimuli/desert_29.jpg","","","","",""
"","","","","","image-keyboard-response","185","2.0.0","193499","pppnvxzgt5o","A17689315","null","stimuli/gym_47.jpg","null","gym","J","non-repeat","null","156","stimuli/gym_47.jpg","","","","",""
"","","","","","image-keyboard-response","186","2.0.0","194501","pppnvxzgt5o","A17689315","null","stimuli/playground_18.jpg","null","playground","K","non-repeat","null","157","stimuli/playground_18.jpg","","","","",""
"","","","","","image-keyboard-response","187","2.0.0","195503","pppnvxzgt5o","A17689315","null","stimuli/street_31.jpg","null","street","L","non-repeat","null","158","stimuli/street_31.jpg","","","","",""
"","","","","","image-keyboard-response","188","2.0.0","196504","pppnvxzgt5o","A17689315","null","stimuli/coast_20.jpg","null","coast","A","non-repeat","null","159","stimuli/coast_20.jpg","","","","",""
"","","","","","image-keyboard-response","189","2.0.0","197507","pppnvxzgt5o","A17689315","null","stimuli/bar_56.jpg","null","bar","B","non-repeat","null","160","stimuli/bar_56.jpg","","","","",""
"","","","","","image-keyboard-response","190","2.0.0","198509","pppnvxzgt5o","A17689315","null","stimuli/desert_29.jpg","null","desert","C","non-repeat","null","161","stimuli/desert_29.jpg","","","","",""
"","","","","","image-keyboard-response","191","2.0.0","199512","pppnvxzgt5o","A17689315","null","stimuli/bridge_21.jpg","null","bridge","D","non-repeat","null","162","stimuli/bridge_21.jpg","","","","",""
"","","","","","image-keyboard-response","192","2.0.0","200513","pppnvxzgt5o","A17689315","null","stimuli/bridge_21.jpg","null","bridge","D","repeat"," ","162","","","","","",""
"","","","","","image-keyboard-response","193","2.0.0","201516","pppnvxzgt5o","A17689315","null","stimuli/field_14.jpg","null","field","E","non-repeat","null","163","stimuli/field_14.jpg","","","","",""
"","","","","","image-keyboard-response","194","2.0.0","202517","pppnvxzgt5o","A17689315","null","stimuli/kitchen_33.jpg","null","kitchen","F","non-repeat","null","164","stimuli/kitchen_33.jpg","","","","",""
"","","","","","image-keyboard-response","195","2.0.0","203519","pppnvxzgt5o","A17689315","null","stimuli/bathroom_12.jpg","null","bathroom","G","non-repeat","null","165","stimuli/bathroom_12.jpg","","","","",""
"","","","","","image-keyboard-response","196","2.0.0","204522","pppnvxzgt5o","A17689315","null","stimuli/woods_13.jpg","null","woods","H","non-repeat","null","166","stimuli/woods_13.jpg","","","","",""
"","","","","","image-keyboard-response","197","2.0.0","205524","pppnvxzgt5o","A17689315","null","stimuli/stream_13.jpg","null","stream","I","non-repeat","null","167","stimuli/stream_13.jpg","","","","",""
"","","","","","image-keyboard-response","198","2.0.0","206526","pppnvxzgt5o","A17689315","null","stimuli/bridge_21.jpg","null","bridge","D","non-repeat","null","168","stimuli/bridge_21.jpg","","","","",""
"","","","","","image-keyboard-response","199","2.0.0","207528","pppnvxzgt5o","A17689315","null","stimuli/field_14.jpg","null","field","E","non-repeat","null","169","stimuli/field_14.jpg","","","","",""
"","","","","","image-keyboard-response","200","2.0.0","208530","pppnvxzgt5o","A17689315","null","stimuli/kitchen_33.jpg","null","kitchen","F","non-repeat","null","170","stimuli/kitchen_33.jpg","","","","",""
"","","","","","image-keyboard-response","201","2.0.0","209532","pppnvxzgt5o","A17689315","null","stimuli/gym_47.jpg","null","gym","J","non-repeat","null","171","stimuli/gym_47.jpg","","","","",""
"","","","","","image-keyboard-response","202","2.0.0","210533","pppnvxzgt5o","A17689315","null","stimuli/playground_18.jpg","null","playground","K","non-repeat","null","172","stimuli/playground_18.jpg","","","","",""
"","","","","","image-keyboard-response","203","2.0.0","211536","pppnvxzgt5o","A17689315","null","stimuli/street_31.jpg","null","street","L","non-repeat","null","173","stimuli/street_31.jpg","","","","",""
"","","","","","image-keyboard-response","204","2.0.0","212537","pppnvxzgt5o","A17689315","null","stimuli/bridge_21.jpg","null","bridge","D","non-repeat","null","174","stimuli/bridge_21.jpg","","","","",""
"","","","","","image-keyboard-response","205","2.0.0","213540","pppnvxzgt5o","A17689315","null","stimuli/field_14.jpg","null","field","E","non-repeat","null","175","stimuli/field_14.jpg","","","","",""
"","","","","","image-keyboard-response","206","2.0.0","214541","pppnvxzgt5o","A17689315","null","stimuli/kitchen_33.jpg","null","kitchen","F","non-repeat","null","176","stimuli/kitchen_33.jpg","","","","",""
"","","","","","image-keyboard-response","207","2.0.0","215545","pppnvxzgt5o","A17689315","null","stimuli/kitchen_33.jpg","null","kitchen","F","repeat"," ","176","","","","","",""
"","","","","","image-keyboard-response","208","2.0.0","216546","pppnvxzgt5o","A17689315","null","stimuli/bathroom_12.jpg","null","bathroom","G","non-repeat","null","177","stimuli/bathroom_12.jpg","","","","",""
"","","","","","image-keyboard-response","209","2.0.0","217548","pppnvxzgt5o","A17689315","null","stimuli/woods_13.jpg","null","woods","H","non-repeat","null","178","stimuli/woods_13.jpg","","","","",""
"","","","","","image-keyboard-response","210","2.0.0","218551","pppnvxzgt5o","A17689315","null","stimuli/stream_13.jpg","null","stream","I","non-repeat","null","179","stimuli/stream_13.jpg","","","","",""
"","","","","","image-keyboard-response","211","2.0.0","219554","pppnvxzgt5o","A17689315","null","stimuli/coast_20.jpg","null","coast","A","non-repeat","null","180","stimuli/coast_20.jpg","","","","",""
"","","","","","image-keyboard-response","212","2.0.0","220556","pppnvxzgt5o","A17689315","null","stimuli/coast_20.jpg","null","coast","A","repeat"," ","180","","","","","",""
"","","","","","image-keyboard-response","213","2.0.0","221558","pppnvxzgt5o","A17689315","null","stimuli/bar_56.jpg","null","bar","B","non-repeat","null","181","stimuli/bar_56.jpg","","","","",""
"","","","","","image-keyboard-response","214","2.0.0","222573","pppnvxzgt5o","A17689315","null","stimuli/desert_29.jpg","null","desert","C","non-repeat","null","182","stimuli/desert_29.jpg","","","","",""
"","","","","","image-keyboard-response","215","2.0.0","223577","pppnvxzgt5o","A17689315","null","stimuli/desert_29.jpg","null","desert","C","repeat"," ","182","","","","","",""
"","","","","","image-keyboard-response","216","2.0.0","224579","pppnvxzgt5o","A17689315","null","stimuli/gym_47.jpg","null","gym","J","non-repeat","null","183","stimuli/gym_47.jpg","","","","",""
"","","","","","image-keyboard-response","217","2.0.0","225581","pppnvxzgt5o","A17689315","null","stimuli/playground_18.jpg","null","playground","K","non-repeat","null","184","stimuli/playground_18.jpg","","","","",""
"","","","","","image-keyboard-response","218","2.0.0","226583","pppnvxzgt5o","A17689315","99","stimuli/street_31.jpg"," ","street","L","non-repeat","null","185","stimuli/street_31.jpg","","","","",""
"","","","","","image-keyboard-response","219","2.0.0","227585","pppnvxzgt5o","A17689315","null","stimuli/bathroom_12.jpg","null","bathroom","G","non-repeat","null","186","stimuli/bathroom_12.jpg","","","","",""
"","","","","","image-keyboard-response","220","2.0.0","228587","pppnvxzgt5o","A17689315","null","stimuli/woods_13.jpg","null","woods","H","non-repeat","null","187","stimuli/woods_13.jpg","","","","",""
"","","","","","image-keyboard-response","221","2.0.0","229589","pppnvxzgt5o","A17689315","null","stimuli/stream_13.jpg","null","stream","I","non-repeat","null","188","stimuli/stream_13.jpg","","","","",""
"","","","","","image-keyboard-response","222","2.0.0","230591","pppnvxzgt5o","A17689315","null","stimuli/gym_47.jpg","null","gym","J","non-repeat","null","189","stimuli/gym_47.jpg","","","","",""
"","","","","","image-keyboard-response","223","2.0.0","231593","pppnvxzgt5o","A17689315","null","stimuli/playground_18.jpg","null","playground","K","non-repeat","null","190","stimuli/playground_18.jpg","","","","",""
"","","","","","image-keyboard-response","224","2.0.0","232596","pppnvxzgt5o","A17689315","null","stimuli/street_31.jpg","null","street","L","non-repeat","null","191","stimuli/street_31.jpg","","","","",""
"","","","","","image-keyboard-response","225","2.0.0","233597","pppnvxzgt5o","A17689315","null","stimuli/coast_20.jpg","null","coast","A","non-repeat","null","192","stimuli/coast_20.jpg","","","","",""
"","","","","","image-keyboard-response","226","2.0.0","234600","pppnvxzgt5o","A17689315","null","stimuli/bar_56.jpg","null","bar","B","non-repeat","null","193","stimuli/bar_56.jpg","","","","",""
"","","","","","image-keyboard-response","227","2.0.0","235602","pppnvxzgt5o","A17689315","null","stimuli/desert_29.jpg","null","desert","C","non-repeat","null","194","stimuli/desert_29.jpg","","","","",""
"","","","","","image-keyboard-response","228","2.0.0","236604","pppnvxzgt5o","A17689315","null","stimuli/bridge_21.jpg","null","bridge","D","non-repeat","null","195","stimuli/bridge_21.jpg","","","","",""
"","","","","","image-keyboard-response","229","2.0.0","237605","pppnvxzgt5o","A17689315","null","stimuli/field_14.jpg","null","field","E","non-repeat","null","196","stimuli/field_14.jpg","","","","",""
"","","","","","image-keyboard-response","230","2.0.0","238607","pppnvxzgt5o","A17689315","null","stimuli/kitchen_33.jpg","null","kitchen","F","non-repeat","null","197","stimuli/kitchen_33.jpg","","","","",""
"","","","","","image-keyboard-response","231","2.0.0","239609","pppnvxzgt5o","A17689315","null","stimuli/coast_20.jpg","null","coast","A","non-repeat","null","198","stimuli/coast_20.jpg","","","","",""
"","","","","","image-keyboard-response","232","2.0.0","240611","pppnvxzgt5o","A17689315","null","stimuli/coast_20.jpg","null","coast","A","repeat"," ","198","","","","","",""
"","","","","","image-keyboard-response","233","2.0.0","241613","pppnvxzgt5o","A17689315","null","stimuli/bar_56.jpg","null","bar","B","non-repeat","null","199","stimuli/bar_56.jpg","","","","",""
"","","","","","image-keyboard-response","234","2.0.0","242615","pppnvxzgt5o","A17689315","null","stimuli/desert_29.jpg","null","desert","C","non-repeat","null","200","stimuli/desert_29.jpg","","","","",""
"","","","","","image-keyboard-response","235","2.0.0","243617","pppnvxzgt5o","A17689315","null","stimuli/bathroom_12.jpg","null","bathroom","G","non-repeat","null","201","stimuli/bathroom_12.jpg","","","","",""
"","","","","","image-keyboard-response","236","2.0.0","244619","pppnvxzgt5o","A17689315","null","stimuli/woods_13.jpg","null","woods","H","non-repeat","null","202","stimuli/woods_13.jpg","","","","",""
"","","","","","image-keyboard-response","237","2.0.0","245622","pppnvxzgt5o","A17689315","null","stimuli/stream_13.jpg","null","stream","I","non-repeat","null","203","stimuli/stream_13.jpg","","","","",""
"","","","","","image-keyboard-response","238","2.0.0","246623","pppnvxzgt5o","A17689315","null","stimuli/stream_13.jpg","null","stream","I","repeat"," ","203","","","","","",""
"","","","","","image-keyboard-response","239","2.0.0","247625","pppnvxzgt5o","A17689315","null","stimuli/coast_20.jpg","null","coast","A","non-repeat","null","204","stimuli/coast_20.jpg","","","","",""
"","","","","","image-keyboard-response","240","2.0.0","248627","pppnvxzgt5o","A17689315","null","stimuli/bar_56.jpg","null","bar","B","non-repeat","null","205","stimuli/bar_56.jpg","","","","",""
"","","","","","image-keyboard-response","241","2.0.0","249630","pppnvxzgt5o","A17689315","null","stimuli/desert_29.jpg","null","desert","C","non-repeat","null","206","stimuli/desert_29.jpg","","","","",""
"","","","","","image-keyboard-response","242","2.0.0","250632","pppnvxzgt5o","A17689315","null","stimuli/gym_47.jpg","null","gym","J","non-repeat","null","207","stimuli/gym_47.jpg","","","","",""
"","","","","","image-keyboard-response","243","2.0.0","251633","pppnvxzgt5o","A17689315","null","stimuli/playground_18.jpg","null","playground","K","non-repeat","null","208","stimuli/playground_18.jpg","","","","",""
"","","","","","image-keyboard-response","244","2.0.0","252635","pppnvxzgt5o","A17689315","330","stimuli/street_31.jpg"," ","street","L","non-repeat","null","209","stimuli/street_31.jpg","","","","",""
"","","","","","image-keyboard-response","245","2.0.0","253637","pppnvxzgt5o","A17689315","null","stimuli/bridge_21.jpg","null","bridge","D","non-repeat","null","210","stimuli/bridge_21.jpg","","","","",""
"","","","","","image-keyboard-response","246","2.0.0","254639","pppnvxzgt5o","A17689315","null","stimuli/field_14.jpg","null","field","E","non-repeat","null","211","stimuli/field_14.jpg","","","","",""
"","","","","","image-keyboard-response","247","2.0.0","255641","pppnvxzgt5o","A17689315","null","stimuli/kitchen_33.jpg","null","kitchen","F","non-repeat","null","212","stimuli/kitchen_33.jpg","","","","",""
"","","","","","image-keyboard-response","248","2.0.0","256643","pppnvxzgt5o","A17689315","null","stimuli/coast_20.jpg","null","coast","A","non-repeat","null","213","stimuli/coast_20.jpg","","","","",""
"","","","","","image-keyboard-response","249","2.0.0","257645","pppnvxzgt5o","A17689315","null","stimuli/bar_56.jpg","null","bar","B","non-repeat","null","214","stimuli/bar_56.jpg","","","","",""
"","","","","","image-keyboard-response","250","2.0.0","258647","pppnvxzgt5o","A17689315","null","stimuli/desert_29.jpg","null","desert","C","non-repeat","null","215","stimuli/desert_29.jpg","","","","",""
"","","","","","image-keyboard-response","251","2.0.0","259650","pppnvxzgt5o","A17689315","370","stimuli/desert_29.jpg"," ","desert","C","repeat"," ","215","","","","","",""
"","","","","","image-keyboard-response","252","2.0.0","260651","pppnvxzgt5o","A17689315","null","stimuli/bathroom_12.jpg","null","bathroom","G","non-repeat","null","216","stimuli/bathroom_12.jpg","","","","",""
"","","","","","image-keyboard-response","253","2.0.0","261654","pppnvxzgt5o","A17689315","null","stimuli/woods_13.jpg","null","woods","H","non-repeat","null","217","stimuli/woods_13.jpg","","","","",""
"","","","","","image-keyboard-response","254","2.0.0","262656","pppnvxzgt5o","A17689315","null","stimuli/stream_13.jpg","null","stream","I","non-repeat","null","218","stimuli/stream_13.jpg","","","","",""
"","","","","","image-keyboard-response","255","2.0.0","263658","pppnvxzgt5o","A17689315","null","stimuli/gym_47.jpg","null","gym","J","non-repeat","null","219","stimuli/gym_47.jpg","","","","",""
"","","","","","image-keyboard-response","256","2.0.0","264660","pppnvxzgt5o","A17689315","null","stimuli/gym_47.jpg","null","gym","J","repeat"," ","219","","","","","",""
"","","","","","image-keyboard-response","257","2.0.0","265661","pppnvxzgt5o","A17689315","null","stimuli/playground_18.jpg","null","playground","K","non-repeat","null","220","stimuli/playground_18.jpg","","","","",""
"","","","","","image-keyboard-response","258","2.0.0","266663","pppnvxzgt5o","A17689315","null","stimuli/street_31.jpg","null","street","L","non-repeat","null","221","stimuli/street_31.jpg","","","","",""
"","","","","","image-keyboard-response","259","2.0.0","267665","pppnvxzgt5o","A17689315","null","stimuli/coast_20.jpg","null","coast","A","non-repeat","null","222","stimuli/coast_20.jpg","","","","",""
"","","","","","image-keyboard-response","260","2.0.0","268667","pppnvxzgt5o","A17689315","null","stimuli/bar_56.jpg","null","bar","B","non-repeat","null","223","stimuli/bar_56.jpg","","","","",""
"","","","","","image-keyboard-response","261","2.0.0","269668","pppnvxzgt5o","A17689315","null","stimuli/desert_29.jpg","null","desert","C","non-repeat","null","224","stimuli/desert_29.jpg","","","","",""
"","","","","","image-keyboard-response","262","2.0.0","270671","pppnvxzgt5o","A17689315","null","stimuli/bathroom_12.jpg","null","bathroom","G","non-repeat","null","225","stimuli/bathroom_12.jpg","","","","",""
"","","","","","image-keyboard-response","263","2.0.0","271673","pppnvxzgt5o","A17689315","null","stimuli/woods_13.jpg","null","woods","H","non-repeat","null","226","stimuli/woods_13.jpg","","","","",""
"","","","","","image-keyboard-response","264","2.0.0","272675","pppnvxzgt5o","A17689315","null","stimuli/stream_13.jpg","null","stream","I","non-repeat","null","227","stimuli/stream_13.jpg","","","","",""
"","","","","","image-keyboard-response","265","2.0.0","273676","pppnvxzgt5o","A17689315","null","stimuli/bridge_21.jpg","null","bridge","D","non-repeat","null","228","stimuli/bridge_21.jpg","","","","",""
"","","","","","image-keyboard-response","266","2.0.0","274679","pppnvxzgt5o","A17689315","null","stimuli/field_14.jpg","null","field","E","non-repeat","null","229","stimuli/field_14.jpg","","","","",""
"","","","","","image-keyboard-response","267","2.0.0","275681","pppnvxzgt5o","A17689315","null","stimuli/kitchen_33.jpg","null","kitchen","F","non-repeat","null","230","stimuli/kitchen_33.jpg","","","","",""
"","","","","","image-keyboard-response","268","2.0.0","276683","pppnvxzgt5o","A17689315","null","stimuli/coast_20.jpg","null","coast","A","non-repeat","null","231","stimuli/coast_20.jpg","","","","",""
"","","","","","image-keyboard-response","269","2.0.0","277685","pppnvxzgt5o","A17689315","null","stimuli/bar_56.jpg","null","bar","B","non-repeat","null","232","stimuli/bar_56.jpg","","","","",""
"","","","","","image-keyboard-response","270","2.0.0","278687","pppnvxzgt5o","A17689315","null","stimuli/desert_29.jpg","null","desert","C","non-repeat","null","233","stimuli/desert_29.jpg","","","","",""
"","","","","","image-keyboard-response","271","2.0.0","279688","pppnvxzgt5o","A17689315","null","stimuli/bathroom_12.jpg","null","bathroom","G","non-repeat","null","234","stimuli/bathroom_12.jpg","","","","",""
"","","","","","image-keyboard-response","272","2.0.0","280690","pppnvxzgt5o","A17689315","null","stimuli/bathroom_12.jpg","null","bathroom","G","repeat"," ","234","","","","","",""
"","","","","","image-keyboard-response","273","2.0.0","281691","pppnvxzgt5o","A17689315","null","stimuli/woods_13.jpg","null","woods","H","non-repeat","null","235","stimuli/woods_13.jpg","","","","",""
"","","","","","image-keyboard-response","274","2.0.0","282693","pppnvxzgt5o","A17689315","null","stimuli/stream_13.jpg","null","stream","I","non-repeat","null","236","stimuli/stream_13.jpg","","","","",""
"","","","","","image-keyboard-response","275","2.0.0","283695","pppnvxzgt5o","A17689315","null","stimuli/stream_13.jpg","null","stream","I","repeat"," ","236","","","","","",""
"","","","","","image-keyboard-response","276","2.0.0","284697","pppnvxzgt5o","A17689315","null","stimuli/bridge_21.jpg","null","bridge","D","non-repeat","null","237","stimuli/bridge_21.jpg","","","","",""
"","","","","","image-keyboard-response","277","2.0.0","285700","pppnvxzgt5o","A17689315","null","stimuli/bridge_21.jpg","null","bridge","D","repeat"," ","237","","","","","",""
"","","","","","image-keyboard-response","278","2.0.0","286701","pppnvxzgt5o","A17689315","null","stimuli/field_14.jpg","null","field","E","non-repeat","null","238","stimuli/field_14.jpg","","","","",""
"","","","","","image-keyboard-response","279","2.0.0","287703","pppnvxzgt5o","A17689315","null","stimuli/kitchen_33.jpg","null","kitchen","F","non-repeat","null","239","stimuli/kitchen_33.jpg","","","","",""
"","","","","","image-keyboard-response","280","2.0.0","288705","pppnvxzgt5o","A17689315","null","stimuli/gym_47.jpg","null","gym","J","non-repeat","null","240","stimuli/gym_47.jpg","","","","",""
"","","","","","image-keyboard-response","281","2.0.0","289707","pppnvxzgt5o","A17689315","null","stimuli/playground_18.jpg","null","playground","K","non-repeat","null","241","stimuli/playground_18.jpg","","","","",""
"","","","","","image-keyboard-response","282","2.0.0","290708","pppnvxzgt5o","A17689315","null","stimuli/street_31.jpg","null","street","L","non-repeat","null","242","stimuli/street_31.jpg","","","","",""
"","","","","","image-keyboard-response","283","2.0.0","291710","pppnvxzgt5o","A17689315","null","stimuli/coast_20.jpg","null","coast","A","non-repeat","null","243","stimuli/coast_20.jpg","","","","",""
"","","","","","image-keyboard-response","284","2.0.0","292712","pppnvxzgt5o","A17689315","null","stimuli/bar_56.jpg","null","bar","B","non-repeat","null","244","stimuli/bar_56.jpg","","","","",""
"","","","","","image-keyboard-response","285","2.0.0","293713","pppnvxzgt5o","A17689315","null","stimuli/desert_29.jpg","null","desert","C","non-repeat","null","245","stimuli/desert_29.jpg","","","","",""
"","","","","","image-keyboard-response","286","2.0.0","294715","pppnvxzgt5o","A17689315","null","stimuli/bridge_21.jpg","null","bridge","D","non-repeat","null","246","stimuli/bridge_21.jpg","","","","",""
"","","","","","image-keyboard-response","287","2.0.0","295717","pppnvxzgt5o","A17689315","null","stimuli/field_14.jpg","null","field","E","non-repeat","null","247","stimuli/field_14.jpg","","","","",""
"","","","","","image-keyboard-response","288","2.0.0","296719","pppnvxzgt5o","A17689315","null","stimuli/kitchen_33.jpg","null","kitchen","F","non-repeat","null","248","stimuli/kitchen_33.jpg","","","","",""
"","","","","","image-keyboard-response","289","2.0.0","297722","pppnvxzgt5o","A17689315","null","stimuli/coast_20.jpg","null","coast","A","non-repeat","null","249","stimuli/coast_20.jpg","","","","",""
"","","","","","image-keyboard-response","290","2.0.0","298723","pppnvxzgt5o","A17689315","null","stimuli/bar_56.jpg","null","bar","B","non-repeat","null","250","stimuli/bar_56.jpg","","","","",""
"","","","","","image-keyboard-response","291","2.0.0","299725","pppnvxzgt5o","A17689315","null","stimuli/desert_29.jpg","null","desert","C","non-repeat","null","251","stimuli/desert_29.jpg","","","","",""
"","","","","","image-keyboard-response","292","2.0.0","300742","pppnvxzgt5o","A17689315","null","stimuli/gym_47.jpg","null","gym","J","non-repeat","null","252","stimuli/gym_47.jpg","","","","",""
"","","","","","image-keyboard-response","293","2.0.0","301744","pppnvxzgt5o","A17689315","null","stimuli/playground_18.jpg","null","playground","K","non-repeat","null","253","stimuli/playground_18.jpg","","","","",""
"","","","","","image-keyboard-response","294","2.0.0","302745","pppnvxzgt5o","A17689315","null","stimuli/street_31.jpg","null","street","L","non-repeat","null","254","stimuli/street_31.jpg","","","","",""
"","","","","","image-keyboard-response","295","2.0.0","303747","pppnvxzgt5o","A17689315","null","stimuli/bathroom_12.jpg","null","bathroom","G","non-repeat","null","255","stimuli/bathroom_12.jpg","","","","",""
"","","","","","image-keyboard-response","296","2.0.0","304749","pppnvxzgt5o","A17689315","null","stimuli/woods_13.jpg","null","woods","H","non-repeat","null","256","stimuli/woods_13.jpg","","","","",""
"","","","","","image-keyboard-response","297","2.0.0","305751","pppnvxzgt5o","A17689315","null","stimuli/stream_13.jpg","null","stream","I","non-repeat","null","257","stimuli/stream_13.jpg","","","","",""
"","","","","","image-keyboard-response","298","2.0.0","306752","pppnvxzgt5o","A17689315","null","stimuli/bridge_21.jpg","null","bridge","D","non-repeat","null","258","stimuli/bridge_21.jpg","","","","",""
"","","","","","image-keyboard-response","299","2.0.0","307754","pppnvxzgt5o","A17689315","null","stimuli/field_14.jpg","null","field","E","non-repeat","null","259","stimuli/field_14.jpg","","","","",""
"","","","","","image-keyboard-response","300","2.0.0","308756","pppnvxzgt5o","A17689315","null","stimuli/kitchen_33.jpg","null","kitchen","F","non-repeat","null","260","stimuli/kitchen_33.jpg","","","","",""
"","","","","","image-keyboard-response","301","2.0.0","309758","pppnvxzgt5o","A17689315","null","stimuli/gym_47.jpg","null","gym","J","non-repeat","null","261","stimuli/gym_47.jpg","","","","",""
"","","","","","image-keyboard-response","302","2.0.0","310759","pppnvxzgt5o","A17689315","null","stimuli/playground_18.jpg","null","playground","K","non-repeat","null","262","stimuli/playground_18.jpg","","","","",""
"","","","","","image-keyboard-response","303","2.0.0","311762","pppnvxzgt5o","A17689315","null","stimuli/street_31.jpg","null","street","L","non-repeat","null","263","stimuli/street_31.jpg","","","","",""
"","","","","","image-keyboard-response","304","2.0.0","312764","pppnvxzgt5o","A17689315","null","stimuli/bridge_21.jpg","null","bridge","D","non-repeat","null","264","stimuli/bridge_21.jpg","","","","",""
"","","","","","image-keyboard-response","305","2.0.0","313766","pppnvxzgt5o","A17689315","null","stimuli/field_14.jpg","null","field","E","non-repeat","null","265","stimuli/field_14.jpg","","","","",""
"","","","","","image-keyboard-response","306","2.0.0","314768","pppnvxzgt5o","A17689315","null","stimuli/kitchen_33.jpg","null","kitchen","F","non-repeat","null","266","stimuli/kitchen_33.jpg","","","","",""
"","","","","","image-keyboard-response","307","2.0.0","315770","pppnvxzgt5o","A17689315","null","stimuli/gym_47.jpg","null","gym","J","non-repeat","null","267","stimuli/gym_47.jpg","","","","",""
"","","","","","image-keyboard-response","308","2.0.0","316772","pppnvxzgt5o","A17689315","null","stimuli/playground_18.jpg","null","playground","K","non-repeat","null","268","stimuli/playground_18.jpg","","","","",""
"","","","","","image-keyboard-response","309","2.0.0","317774","pppnvxzgt5o","A17689315","null","stimuli/street_31.jpg","null","street","L","non-repeat","null","269","stimuli/street_31.jpg","","","","",""
"","","","","","image-keyboard-response","310","2.0.0","318791","pppnvxzgt5o","A17689315","329","stimuli/street_31.jpg"," ","street","L","repeat"," ","269","","","","","",""
"","","","","","image-keyboard-response","311","2.0.0","319792","pppnvxzgt5o","A17689315","null","stimuli/bridge_21.jpg","null","bridge","D","non-repeat","null","270","stimuli/bridge_21.jpg","","","","",""
"","","","","","image-keyboard-response","312","2.0.0","320794","pppnvxzgt5o","A17689315","null","stimuli/field_14.jpg","null","field","E","non-repeat","null","271","stimuli/field_14.jpg","","","","",""
"","","","","","image-keyboard-response","313","2.0.0","321795","pppnvxzgt5o","A17689315","null","stimuli/kitchen_33.jpg","null","kitchen","F","non-repeat","null","272","stimuli/kitchen_33.jpg","","","","",""
"","","","","","image-keyboard-response","314","2.0.0","322797","pppnvxzgt5o","A17689315","null","stimuli/coast_20.jpg","null","coast","A","non-repeat","null","273","stimuli/coast_20.jpg","","","","",""
"","","","","","image-keyboard-response","315","2.0.0","323799","pppnvxzgt5o","A17689315","null","stimuli/bar_56.jpg","null","bar","B","non-repeat","null","274","stimuli/bar_56.jpg","","","","",""
"","","","","","image-keyboard-response","316","2.0.0","324801","pppnvxzgt5o","A17689315","null","stimuli/desert_29.jpg","null","desert","C","non-repeat","null","275","stimuli/desert_29.jpg","","","","",""
"","","","","","image-keyboard-response","317","2.0.0","325803","pppnvxzgt5o","A17689315","null","stimuli/bathroom_12.jpg","null","bathroom","G","non-repeat","null","276","stimuli/bathroom_12.jpg","","","","",""
"","","","","","image-keyboard-response","318","2.0.0","326805","pppnvxzgt5o","A17689315","null","stimuli/woods_13.jpg","null","woods","H","non-repeat","null","277","stimuli/woods_13.jpg","","","","",""
"","","","","","image-keyboard-response","319","2.0.0","327807","pppnvxzgt5o","A17689315","null","stimuli/stream_13.jpg","null","stream","I","non-repeat","null","278","stimuli/stream_13.jpg","","","","",""
"","","","","","image-keyboard-response","320","2.0.0","328809","pppnvxzgt5o","A17689315","null","stimuli/coast_20.jpg","null","coast","A","non-repeat","null","279","stimuli/coast_20.jpg","","","","",""
"","","","","","image-keyboard-response","321","2.0.0","329811","pppnvxzgt5o","A17689315","null","stimuli/bar_56.jpg","null","bar","B","non-repeat","null","280","stimuli/bar_56.jpg","","","","",""
"","","","","","image-keyboard-response","322","2.0.0","330813","pppnvxzgt5o","A17689315","null","stimuli/desert_29.jpg","null","desert","C","non-repeat","null","281","stimuli/desert_29.jpg","","","","",""
"","","","","","image-keyboard-response","323","2.0.0","331815","pppnvxzgt5o","A17689315","null","stimuli/gym_47.jpg","null","gym","J","non-repeat","null","282","stimuli/gym_47.jpg","","","","",""
"","","","","","image-keyboard-response","324","2.0.0","332816","pppnvxzgt5o","A17689315","null","stimuli/gym_47.jpg","null","gym","J","repeat"," ","282","","","","","",""
"","","","","","image-keyboard-response","325","2.0.0","333820","pppnvxzgt5o","A17689315","null","stimuli/playground_18.jpg","null","playground","K","non-repeat","null","283","stimuli/playground_18.jpg","","","","",""
"","","","","","image-keyboard-response","326","2.0.0","334821","pppnvxzgt5o","A17689315","null","stimuli/street_31.jpg","null","street","L","non-repeat","null","284","stimuli/street_31.jpg","","","","",""
"","","","","","image-keyboard-response","327","2.0.0","335824","pppnvxzgt5o","A17689315","null","stimuli/bathroom_12.jpg","null","bathroom","G","non-repeat","null","285","stimuli/bathroom_12.jpg","","","","",""
"","","","","","image-keyboard-response","328","2.0.0","336826","pppnvxzgt5o","A17689315","null","stimuli/bathroom_12.jpg","null","bathroom","G","repeat"," ","285","","","","","",""
"","","","","","image-keyboard-response","329","2.0.0","337828","pppnvxzgt5o","A17689315","null","stimuli/woods_13.jpg","null","woods","H","non-repeat","null","286","stimuli/woods_13.jpg","","","","",""
"","","","","","image-keyboard-response","330","2.0.0","338830","pppnvxzgt5o","A17689315","null","stimuli/stream_13.jpg","null","stream","I","non-repeat","null","287","stimuli/stream_13.jpg","","","","",""
"","","","","","image-keyboard-response","331","2.0.0","339832","pppnvxzgt5o","A17689315","null","stimuli/gym_47.jpg","null","gym","J","non-repeat","null","288","stimuli/gym_47.jpg","","","","",""
"","","","","","image-keyboard-response","332","2.0.0","340834","pppnvxzgt5o","A17689315","null","stimuli/playground_18.jpg","null","playground","K","non-repeat","null","289","stimuli/playground_18.jpg","","","","",""
"","","","","","image-keyboard-response","333","2.0.0","341835","pppnvxzgt5o","A17689315","null","stimuli/street_31.jpg","null","street","L","non-repeat","null","290","stimuli/street_31.jpg","","","","",""
"","","","","","image-keyboard-response","334","2.0.0","342837","pppnvxzgt5o","A17689315","null","stimuli/bridge_21.jpg","null","bridge","D","non-repeat","null","291","stimuli/bridge_21.jpg","","","","",""
"","","","","","image-keyboard-response","335","2.0.0","343839","pppnvxzgt5o","A17689315","null","stimuli/field_14.jpg","null","field","E","non-repeat","null","292","stimuli/field_14.jpg","","","","",""
"","","","","","image-keyboard-response","336","2.0.0","344841","pppnvxzgt5o","A17689315","null","stimuli/kitchen_33.jpg","null","kitchen","F","non-repeat","null","293","stimuli/kitchen_33.jpg","","","","",""
"","","","","","image-keyboard-response","337","2.0.0","345843","pppnvxzgt5o","A17689315","null","stimuli/bathroom_12.jpg","null","bathroom","G","non-repeat","null","294","stimuli/bathroom_12.jpg","","","","",""
"","","","","","image-keyboard-response","338","2.0.0","346845","pppnvxzgt5o","A17689315","null","stimuli/woods_13.jpg","null","woods","H","non-repeat","null","295","stimuli/woods_13.jpg","","","","",""
"","","","","","image-keyboard-response","339","2.0.0","347848","pppnvxzgt5o","A17689315","null","stimuli/stream_13.jpg","null","stream","I","non-repeat","null","296","stimuli/stream_13.jpg","","","","",""
"","","","","","image-keyboard-response","340","2.0.0","348849","pppnvxzgt5o","A17689315","null","stimuli/stream_13.jpg","null","stream","I","repeat"," ","296","","","","","",""
"","","","","","image-keyboard-response","341","2.0.0","349861","pppnvxzgt5o","A17689315","null","stimuli/gym_47.jpg","null","gym","J","non-repeat","null","297","stimuli/gym_47.jpg","","","","",""
"","","","","","image-keyboard-response","342","2.0.0","350863","pppnvxzgt5o","A17689315","null","stimuli/playground_18.jpg","null","playground","K","non-repeat","null","298","stimuli/playground_18.jpg","","","","",""
"","","","","","image-keyboard-response","343","2.0.0","351865","pppnvxzgt5o","A17689315","null","stimuli/street_31.jpg","null","street","L","non-repeat","null","299","stimuli/street_31.jpg","","","","",""
"","","","","","image-keyboard-response","344","2.0.0","352866","pppnvxzgt5o","A17689315","null","stimuli/street_31.jpg","null","street","L","repeat"," ","299","","","","","",""
"","","","","","image-keyboard-response","345","2.0.0","353869","pppnvxzgt5o","A17689315","null","stimuli/coast_20.jpg","null","coast","A","non-repeat","null","300","stimuli/coast_20.jpg","","","","",""
"","","","","","image-keyboard-response","346","2.0.0","354882","pppnvxzgt5o","A17689315","null","stimuli/bar_56.jpg","null","bar","B","non-repeat","null","301","stimuli/bar_56.jpg","","","","",""
"","","","","","image-keyboard-response","347","2.0.0","355883","pppnvxzgt5o","A17689315","null","stimuli/desert_29.jpg","null","desert","C","non-repeat","null","302","stimuli/desert_29.jpg","","","","",""
"","","","","","image-keyboard-response","348","2.0.0","356885","pppnvxzgt5o","A17689315","null","stimuli/gym_47.jpg","null","gym","J","non-repeat","null","303","stimuli/gym_47.jpg","","","","",""
"","","","","","image-keyboard-response","349","2.0.0","357887","pppnvxzgt5o","A17689315","null","stimuli/playground_18.jpg","null","playground","K","non-repeat","null","304","stimuli/playground_18.jpg","","","","",""
"","","","","","image-keyboard-response","350","2.0.0","358889","pppnvxzgt5o","A17689315","null","stimuli/street_31.jpg","null","street","L","non-repeat","null","305","stimuli/street_31.jpg","","","","",""
"","","","","","image-keyboard-response","351","2.0.0","359890","pppnvxzgt5o","A17689315","null","stimuli/bathroom_12.jpg","null","bathroom","G","non-repeat","null","306","stimuli/bathroom_12.jpg","","","","",""
"","","","","","image-keyboard-response","352","2.0.0","360902","pppnvxzgt5o","A17689315","null","stimuli/woods_13.jpg","null","woods","H","non-repeat","null","307","stimuli/woods_13.jpg","","","","",""
"","","","","","image-keyboard-response","353","2.0.0","361905","pppnvxzgt5o","A17689315","null","stimuli/stream_13.jpg","null","stream","I","non-repeat","null","308","stimuli/stream_13.jpg","","","","",""
"","","","","","image-keyboard-response","354","2.0.0","362907","pppnvxzgt5o","A17689315","null","stimuli/bridge_21.jpg","null","bridge","D","non-repeat","null","309","stimuli/bridge_21.jpg","","","","",""
"","","","","","image-keyboard-response","355","2.0.0","363908","pppnvxzgt5o","A17689315","null","stimuli/field_14.jpg","null","field","E","non-repeat","null","310","stimuli/field_14.jpg","","","","",""
"","","","","","image-keyboard-response","356","2.0.0","364909","pppnvxzgt5o","A17689315","null","stimuli/kitchen_33.jpg","null","kitchen","F","non-repeat","null","311","stimuli/kitchen_33.jpg","","","","",""
"","","","","","image-keyboard-response","357","2.0.0","365911","pppnvxzgt5o","A17689315","null","stimuli/kitchen_33.jpg","null","kitchen","F","repeat"," ","311","","","","","",""
"","","","","","image-keyboard-response","358","2.0.0","366913","pppnvxzgt5o","A17689315","null","stimuli/coast_20.jpg","null","coast","A","non-repeat","null","312","stimuli/coast_20.jpg","","","","",""
"","","","","","image-keyboard-response","359","2.0.0","367915","pppnvxzgt5o","A17689315","null","stimuli/bar_56.jpg","null","bar","B","non-repeat","null","313","stimuli/bar_56.jpg","","","","",""
"","","","","","image-keyboard-response","360","2.0.0","368917","pppnvxzgt5o","A17689315","null","stimuli/desert_29.jpg","null","desert","C","non-repeat","null","314","stimuli/desert_29.jpg","","","","",""
"","","","","","image-keyboard-response","361","2.0.0","369919","pppnvxzgt5o","A17689315","null","stimuli/desert_29.jpg","null","desert","C","repeat"," ","314","","","","","",""
"","","","","","image-keyboard-response","362","2.0.0","370921","pppnvxzgt5o","A17689315","null","stimuli/bridge_21.jpg","null","bridge","D","non-repeat","null","315","stimuli/bridge_21.jpg","","","","",""
"","","","","","image-keyboard-response","363","2.0.0","371923","pppnvxzgt5o","A17689315","null","stimuli/field_14.jpg","null","field","E","non-repeat","null","316","stimuli/field_14.jpg","","","","",""
"","","","","","image-keyboard-response","364","2.0.0","372925","pppnvxzgt5o","A17689315","null","stimuli/kitchen_33.jpg","null","kitchen","F","non-repeat","null","317","stimuli/kitchen_33.jpg","","","","",""
"","","","","","image-keyboard-response","365","2.0.0","373927","pppnvxzgt5o","A17689315","null","stimuli/bathroom_12.jpg","null","bathroom","G","non-repeat","null","318","stimuli/bathroom_12.jpg","","","","",""
"","","","","","image-keyboard-response","366","2.0.0","374929","pppnvxzgt5o","A17689315","null","stimuli/woods_13.jpg","null","woods","H","non-repeat","null","319","stimuli/woods_13.jpg","","","","",""
"","","","","","image-keyboard-response","367","2.0.0","375931","pppnvxzgt5o","A17689315","null","stimuli/stream_13.jpg","null","stream","I","non-repeat","null","320","stimuli/stream_13.jpg","","","","",""
"","","","","","image-keyboard-response","368","2.0.0","376933","pppnvxzgt5o","A17689315","null","stimuli/bridge_21.jpg","null","bridge","D","non-repeat","null","321","stimuli/bridge_21.jpg","","","","",""
"","","","","","image-keyboard-response","369","2.0.0","377936","pppnvxzgt5o","A17689315","null","stimuli/field_14.jpg","null","field","E","non-repeat","null","322","stimuli/field_14.jpg","","","","",""
"","","","","","image-keyboard-response","370","2.0.0","378938","pppnvxzgt5o","A17689315","null","stimuli/kitchen_33.jpg","null","kitchen","F","non-repeat","null","323","stimuli/kitchen_33.jpg","","","","",""
"","","","","","image-keyboard-response","371","2.0.0","379939","pppnvxzgt5o","A17689315","null","stimuli/gym_47.jpg","null","gym","J","non-repeat","null","324","stimuli/gym_47.jpg","","","","",""
"","","","","","image-keyboard-response","372","2.0.0","380941","pppnvxzgt5o","A17689315","null","stimuli/playground_18.jpg","null","playground","K","non-repeat","null","325","stimuli/playground_18.jpg","","","","",""
"","","","","","image-keyboard-response","373","2.0.0","381944","pppnvxzgt5o","A17689315","null","stimuli/street_31.jpg","null","street","L","non-repeat","null","326","stimuli/street_31.jpg","","","","",""
"","","","","","image-keyboard-response","374","2.0.0","382946","pppnvxzgt5o","A17689315","null","stimuli/coast_20.jpg","null","coast","A","non-repeat","null","327","stimuli/coast_20.jpg","","","","",""
"","","","","","image-keyboard-response","375","2.0.0","383947","pppnvxzgt5o","A17689315","null","stimuli/bar_56.jpg","null","bar","B","non-repeat","null","328","stimuli/bar_56.jpg","","","","",""
"","","","","","image-keyboard-response","376","2.0.0","384949","pppnvxzgt5o","A17689315","null","stimuli/desert_29.jpg","null","desert","C","non-repeat","null","329","stimuli/desert_29.jpg","","","","",""
"","","","","","image-keyboard-response","377","2.0.0","385951","pppnvxzgt5o","A17689315","null","stimuli/bridge_21.jpg","null","bridge","D","non-repeat","null","330","stimuli/bridge_21.jpg","","","","",""
"","","","","","image-keyboard-response","378","2.0.0","386953","pppnvxzgt5o","A17689315","null","stimuli/field_14.jpg","null","field","E","non-repeat","null","331","stimuli/field_14.jpg","","","","",""
"","","","","","image-keyboard-response","379","2.0.0","387969","pppnvxzgt5o","A17689315","null","stimuli/kitchen_33.jpg","null","kitchen","F","non-repeat","null","332","stimuli/kitchen_33.jpg","","","","",""
"","","","","","image-keyboard-response","380","2.0.0","388970","pppnvxzgt5o","A17689315","null","stimuli/coast_20.jpg","null","coast","A","non-repeat","null","333","stimuli/coast_20.jpg","","","","",""
"","","","","","image-keyboard-response","381","2.0.0","389972","pppnvxzgt5o","A17689315","null","stimuli/bar_56.jpg","null","bar","B","non-repeat","null","334","stimuli/bar_56.jpg","","","","",""
"","","","","","image-keyboard-response","382","2.0.0","390974","pppnvxzgt5o","A17689315","null","stimuli/desert_29.jpg","null","desert","C","non-repeat","null","335","stimuli/desert_29.jpg","","","","",""
"","","","","","image-keyboard-response","383","2.0.0","391975","pppnvxzgt5o","A17689315","null","stimuli/bathroom_12.jpg","null","bathroom","G","non-repeat","null","336","stimuli/bathroom_12.jpg","","","","",""
"","","","","","image-keyboard-response","384","2.0.0","392977","pppnvxzgt5o","A17689315","null","stimuli/bathroom_12.jpg","null","bathroom","G","repeat"," ","336","","","","","",""
"","","","","","image-keyboard-response","385","2.0.0","393979","pppnvxzgt5o","A17689315","null","stimuli/woods_13.jpg","null","woods","H","non-repeat","null","337","stimuli/woods_13.jpg","","","","",""
"","","","","","image-keyboard-response","386","2.0.0","394981","pppnvxzgt5o","A17689315","null","stimuli/stream_13.jpg","null","stream","I","non-repeat","null","338","stimuli/stream_13.jpg","","","","",""
"","","","","","image-keyboard-response","387","2.0.0","395983","pppnvxzgt5o","A17689315","null","stimuli/bridge_21.jpg","null","bridge","D","non-repeat","null","339","stimuli/bridge_21.jpg","","","","",""
"","","","","","image-keyboard-response","388","2.0.0","396984","pppnvxzgt5o","A17689315","null","stimuli/field_14.jpg","null","field","E","non-repeat","null","340","stimuli/field_14.jpg","","","","",""
"","","","","","image-keyboard-response","389","2.0.0","397985","pppnvxzgt5o","A17689315","null","stimuli/kitchen_33.jpg","null","kitchen","F","non-repeat","null","341","stimuli/kitchen_33.jpg","","","","",""
"","","","","","image-keyboard-response","390","2.0.0","398987","pppnvxzgt5o","A17689315","null","stimuli/coast_20.jpg","null","coast","A","non-repeat","null","342","stimuli/coast_20.jpg","","","","",""
"","","","","","image-keyboard-response","391","2.0.0","399989","pppnvxzgt5o","A17689315","null","stimuli/bar_56.jpg","null","bar","B","non-repeat","null","343","stimuli/bar_56.jpg","","","","",""
"","","","","","image-keyboard-response","392","2.0.0","400990","pppnvxzgt5o","A17689315","null","stimuli/desert_29.jpg","null","desert","C","non-repeat","null","344","stimuli/desert_29.jpg","","","","",""
"","","","","","image-keyboard-response","393","2.0.0","401992","pppnvxzgt5o","A17689315","420","stimuli/desert_29.jpg"," ","desert","C","repeat"," ","344","","","","","",""
"","","","","","image-keyboard-response","394","2.0.0","402995","pppnvxzgt5o","A17689315","null","stimuli/bridge_21.jpg","null","bridge","D","non-repeat","null","345","stimuli/bridge_21.jpg","","","","",""
"","","","","","image-keyboard-response","395","2.0.0","403997","pppnvxzgt5o","A17689315","null","stimuli/field_14.jpg","null","field","E","non-repeat","null","346","stimuli/field_14.jpg","","","","",""
"","","","","","image-keyboard-response","396","2.0.0","405000","pppnvxzgt5o","A17689315","null","stimuli/kitchen_33.jpg","null","kitchen","F","non-repeat","null","347","stimuli/kitchen_33.jpg","","","","",""
"","","","","","image-keyboard-response","397","2.0.0","406002","pppnvxzgt5o","A17689315","null","stimuli/gym_47.jpg","null","gym","J","non-repeat","null","348","stimuli/gym_47.jpg","","","","",""
"","","","","","image-keyboard-response","398","2.0.0","407005","pppnvxzgt5o","A17689315","null","stimuli/gym_47.jpg","null","gym","J","repeat"," ","348","","","","","",""
"","","","","","image-keyboard-response","399","2.0.0","408007","pppnvxzgt5o","A17689315","null","stimuli/playground_18.jpg","null","playground","K","non-repeat","null","349","stimuli/playground_18.jpg","","","","",""
"","","","","","image-keyboard-response","400","2.0.0","409009","pppnvxzgt5o","A17689315","null","stimuli/street_31.jpg","null","street","L","non-repeat","null","350","stimuli/street_31.jpg","","","","",""
"","","","","","image-keyboard-response","401","2.0.0","410010","pppnvxzgt5o","A17689315","null","stimuli/bathroom_12.jpg","null","bathroom","G","non-repeat","null","351","stimuli/bathroom_12.jpg","","","","",""
"","","","","","image-keyboard-response","402","2.0.0","411013","pppnvxzgt5o","A17689315","null","stimuli/bathroom_12.jpg","null","bathroom","G","repeat"," ","351","","","","","",""
"","","","","","image-keyboard-response","403","2.0.0","412015","pppnvxzgt5o","A17689315","null","stimuli/woods_13.jpg","null","woods","H","non-repeat","null","352","stimuli/woods_13.jpg","","","","",""
"","","","","","image-keyboard-response","404","2.0.0","413017","pppnvxzgt5o","A17689315","null","stimuli/stream_13.jpg","null","stream","I","non-repeat","null","353","stimuli/stream_13.jpg","","","","",""
"","","","","","image-keyboard-response","405","2.0.0","414019","pppnvxzgt5o","A17689315","null","stimuli/coast_20.jpg","null","coast","A","non-repeat","null","354","stimuli/coast_20.jpg","","","","",""
"","","","","","image-keyboard-response","406","2.0.0","415021","pppnvxzgt5o","A17689315","null","stimuli/bar_56.jpg","null","bar","B","non-repeat","null","355","stimuli/bar_56.jpg","","","","",""
"","","","","","image-keyboard-response","407","2.0.0","416023","pppnvxzgt5o","A17689315","null","stimuli/desert_29.jpg","null","desert","C","non-repeat","null","356","stimuli/desert_29.jpg","","","","",""
"","","","","","image-keyboard-response","408","2.0.0","417025","pppnvxzgt5o","A17689315","359","stimuli/desert_29.jpg"," ","desert","C","repeat"," ","356","","","","","",""
"","","","","","image-keyboard-response","409","2.0.0","418028","pppnvxzgt5o","A17689315","null","stimuli/gym_47.jpg","null","gym","J","non-repeat","null","357","stimuli/gym_47.jpg","","","","",""
"","","","","","image-keyboard-response","410","2.0.0","419030","pppnvxzgt5o","A17689315","null","stimuli/playground_18.jpg","null","playground","K","non-repeat","null","358","stimuli/playground_18.jpg","","","","",""
"","","","","","image-keyboard-response","411","2.0.0","420032","pppnvxzgt5o","A17689315","320","stimuli/street_31.jpg"," ","street","L","non-repeat","null","359","stimuli/street_31.jpg","","","","",""
"","","","","","image-keyboard-response","412","2.0.0","421034","pppnvxzgt5o","A17689315","null","stimuli/coast_20.jpg","null","coast","A","non-repeat","null","360","stimuli/coast_20.jpg","","","","",""
"","","","","","image-keyboard-response","413","2.0.0","422036","pppnvxzgt5o","A17689315","null","stimuli/bar_56.jpg","null","bar","B","non-repeat","null","361","stimuli/bar_56.jpg","","","","",""
"","","","","","image-keyboard-response","414","2.0.0","423037","pppnvxzgt5o","A17689315","null","stimuli/desert_29.jpg","null","desert","C","non-repeat","null","362","stimuli/desert_29.jpg","","","","",""
"","","","","","image-keyboard-response","415","2.0.0","424040","pppnvxzgt5o","A17689315","487","stimuli/desert_29.jpg"," ","desert","C","repeat"," ","362","","","","","",""
"","","","","","image-keyboard-response","416","2.0.0","425042","pppnvxzgt5o","A17689315","null","stimuli/bridge_21.jpg","null","bridge","D","non-repeat","null","363","stimuli/bridge_21.jpg","","","","",""
"","","","","","image-keyboard-response","417","2.0.0","426043","pppnvxzgt5o","A17689315","null","stimuli/field_14.jpg","null","field","E","non-repeat","null","364","stimuli/field_14.jpg","","","","",""
"","","","","","image-keyboard-response","418","2.0.0","427046","pppnvxzgt5o","A17689315","null","stimuli/kitchen_33.jpg","null","kitchen","F","non-repeat","null","365","stimuli/kitchen_33.jpg","","","","",""
"","","","","","image-keyboard-response","419","2.0.0","428047","pppnvxzgt5o","A17689315","null","stimuli/coast_20.jpg","null","coast","A","non-repeat","null","366","stimuli/coast_20.jpg","","","","",""
"","","","","","image-keyboard-response","420","2.0.0","429050","pppnvxzgt5o","A17689315","null","stimuli/bar_56.jpg","null","bar","B","non-repeat","null","367","stimuli/bar_56.jpg","","","","",""
"","","","","","image-keyboard-response","421","2.0.0","430062","pppnvxzgt5o","A17689315","null","stimuli/desert_29.jpg","null","desert","C","non-repeat","null","368","stimuli/desert_29.jpg","","","","",""
"","","","","","image-keyboard-response","422","2.0.0","431064","pppnvxzgt5o","A17689315","null","stimuli/bathroom_12.jpg","null","bathroom","G","non-repeat","null","369","stimuli/bathroom_12.jpg","","","","",""
"","","","","","image-keyboard-response","423","2.0.0","432066","pppnvxzgt5o","A17689315","null","stimuli/woods_13.jpg","null","woods","H","non-repeat","null","370","stimuli/woods_13.jpg","","","","",""
"","","","","","image-keyboard-response","424","2.0.0","433068","pppnvxzgt5o","A17689315","null","stimuli/stream_13.jpg","null","stream","I","non-repeat","null","371","stimuli/stream_13.jpg","","","","",""
"","","","","","image-keyboard-response","425","2.0.0","434069","pppnvxzgt5o","A17689315","null","stimuli/bridge_21.jpg","null","bridge","D","non-repeat","null","372","stimuli/bridge_21.jpg","","","","",""
"","","","","","image-keyboard-response","426","2.0.0","435071","pppnvxzgt5o","A17689315","null","stimuli/bridge_21.jpg","null","bridge","D","repeat"," ","372","","","","","",""
"","","","","","image-keyboard-response","427","2.0.0","436073","pppnvxzgt5o","A17689315","null","stimuli/field_14.jpg","null","field","E","non-repeat","null","373","stimuli/field_14.jpg","","","","",""
"","","","","","image-keyboard-response","428","2.0.0","437075","pppnvxzgt5o","A17689315","null","stimuli/kitchen_33.jpg","null","kitchen","F","non-repeat","null","374","stimuli/kitchen_33.jpg","","","","",""
"","","","","","image-keyboard-response","429","2.0.0","438077","pppnvxzgt5o","A17689315","null","stimuli/gym_47.jpg","null","gym","J","non-repeat","null","375","stimuli/gym_47.jpg","","","","",""
"","","","","","image-keyboard-response","430","2.0.0","439079","pppnvxzgt5o","A17689315","null","stimuli/playground_18.jpg","null","playground","K","non-repeat","null","376","stimuli/playground_18.jpg","","","","",""
"","","","","","image-keyboard-response","431","2.0.0","440081","pppnvxzgt5o","A17689315","null","stimuli/street_31.jpg","null","street","L","non-repeat","null","377","stimuli/street_31.jpg","","","","",""
"","","","","","image-keyboard-response","432","2.0.0","441083","pppnvxzgt5o","A17689315","null","stimuli/street_31.jpg","null","street","L","repeat"," ","377","","","","","",""
"","","","","","image-keyboard-response","433","2.0.0","442084","pppnvxzgt5o","A17689315","null","stimuli/bathroom_12.jpg","null","bathroom","G","non-repeat","null","378","stimuli/bathroom_12.jpg","","","","",""
"","","","","","image-keyboard-response","434","2.0.0","443085","pppnvxzgt5o","A17689315","null","stimuli/woods_13.jpg","null","woods","H","non-repeat","null","379","stimuli/woods_13.jpg","","","","",""
"","","","","","image-keyboard-response","435","2.0.0","444087","pppnvxzgt5o","A17689315","null","stimuli/stream_13.jpg","null","stream","I","non-repeat","null","380","stimuli/stream_13.jpg","","","","",""
"","","","","","image-keyboard-response","436","2.0.0","445089","pppnvxzgt5o","A17689315","null","stimuli/stream_13.jpg","null","stream","I","repeat"," ","380","","","","","",""
"","","","","","image-keyboard-response","437","2.0.0","446090","pppnvxzgt5o","A17689315","null","stimuli/coast_20.jpg","null","coast","A","non-repeat","null","381","stimuli/coast_20.jpg","","","","",""
"","","","","","image-keyboard-response","438","2.0.0","447093","pppnvxzgt5o","A17689315","null","stimuli/bar_56.jpg","null","bar","B","non-repeat","null","382","stimuli/bar_56.jpg","","","","",""
"","","","","","image-keyboard-response","439","2.0.0","448095","pppnvxzgt5o","A17689315","null","stimuli/desert_29.jpg","null","desert","C","non-repeat","null","383","stimuli/desert_29.jpg","","","","",""
"","","","","","image-keyboard-response","440","2.0.0","449096","pppnvxzgt5o","A17689315","null","stimuli/gym_47.jpg","null","gym","J","non-repeat","null","384","stimuli/gym_47.jpg","","","","",""
"","","","","","image-keyboard-response","441","2.0.0","450099","pppnvxzgt5o","A17689315","null","stimuli/playground_18.jpg","null","playground","K","non-repeat","null","385","stimuli/playground_18.jpg","","","","",""
"","","","","","image-keyboard-response","442","2.0.0","451100","pppnvxzgt5o","A17689315","362","stimuli/street_31.jpg"," ","street","L","non-repeat","null","386","stimuli/street_31.jpg","","","","",""
"","","","","","image-keyboard-response","443","2.0.0","452113","pppnvxzgt5o","A17689315","536","stimuli/street_31.jpg"," ","street","L","repeat"," ","386","","","","","",""
"","","","","","image-keyboard-response","444","2.0.0","453115","pppnvxzgt5o","A17689315","null","stimuli/coast_20.jpg","null","coast","A","non-repeat","null","387","stimuli/coast_20.jpg","","","","",""
"","","","","","image-keyboard-response","445","2.0.0","454117","pppnvxzgt5o","A17689315","null","stimuli/bar_56.jpg","null","bar","B","non-repeat","null","388","stimuli/bar_56.jpg","","","","",""
"","","","","","image-keyboard-response","446","2.0.0","455118","pppnvxzgt5o","A17689315","null","stimuli/desert_29.jpg","null","desert","C","non-repeat","null","389","stimuli/desert_29.jpg","","","","",""
"","","","","","image-keyboard-response","447","2.0.0","456120","pppnvxzgt5o","A17689315","null","stimuli/desert_29.jpg","null","desert","C","repeat"," ","389","","","","","",""
"","","","","","image-keyboard-response","448","2.0.0","457122","pppnvxzgt5o","A17689315","null","stimuli/bridge_21.jpg","null","bridge","D","non-repeat","null","390","stimuli/bridge_21.jpg","","","","",""
"","","","","","image-keyboard-response","449","2.0.0","458124","pppnvxzgt5o","A17689315","null","stimuli/field_14.jpg","null","field","E","non-repeat","null","391","stimuli/field_14.jpg","","","","",""
"","","","","","image-keyboard-response","450","2.0.0","459126","pppnvxzgt5o","A17689315","null","stimuli/kitchen_33.jpg","null","kitchen","F","non-repeat","null","392","stimuli/kitchen_33.jpg","","","","",""
"","","","","","image-keyboard-response","451","2.0.0","460127","pppnvxzgt5o","A17689315","null","stimuli/gym_47.jpg","null","gym","J","non-repeat","null","393","stimuli/gym_47.jpg","","","","",""
"","","","","","image-keyboard-response","452","2.0.0","461142","pppnvxzgt5o","A17689315","null","stimuli/playground_18.jpg","null","playground","K","non-repeat","null","394","stimuli/playground_18.jpg","","","","",""
"","","","","","image-keyboard-response","453","2.0.0","462144","pppnvxzgt5o","A17689315","null","stimuli/street_31.jpg","null","street","L","non-repeat","null","395","stimuli/street_31.jpg","","","","",""
"","","","","","image-keyboard-response","454","2.0.0","463145","pppnvxzgt5o","A17689315","null","stimuli/coast_20.jpg","null","coast","A","non-repeat","null","396","stimuli/coast_20.jpg","","","","",""
"","","","","","image-keyboard-response","455","2.0.0","464147","pppnvxzgt5o","A17689315","null","stimuli/bar_56.jpg","null","bar","B","non-repeat","null","397","stimuli/bar_56.jpg","","","","",""
"","","","","","image-keyboard-response","456","2.0.0","465149","pppnvxzgt5o","A17689315","null","stimuli/desert_29.jpg","null","desert","C","non-repeat","null","398","stimuli/desert_29.jpg","","","","",""
"","","","","","image-keyboard-response","457","2.0.0","466151","pppnvxzgt5o","A17689315","null","stimuli/bathroom_12.jpg","null","bathroom","G","non-repeat","null","399","stimuli/bathroom_12.jpg","","","","",""
"","","","","","image-keyboard-response","458","2.0.0","467153","pppnvxzgt5o","A17689315","599","stimuli/bathroom_12.jpg"," ","bathroom","G","repeat"," ","399","","","","","",""
"","","","","","image-keyboard-response","459","2.0.0","468156","pppnvxzgt5o","A17689315","null","stimuli/woods_13.jpg","null","woods","H","non-repeat","null","400","stimuli/woods_13.jpg","","","","",""
"","","","","","image-keyboard-response","460","2.0.0","469158","pppnvxzgt5o","A17689315","null","stimuli/stream_13.jpg","null","stream","I","non-repeat","null","401","stimuli/stream_13.jpg","","","","",""
"","","","","","image-keyboard-response","461","2.0.0","470159","pppnvxzgt5o","A17689315","null","stimuli/bridge_21.jpg","null","bridge","D","non-repeat","null","402","stimuli/bridge_21.jpg","","","","",""
"","","","","","image-keyboard-response","462","2.0.0","471161","pppnvxzgt5o","A17689315","null","stimuli/field_14.jpg","null","field","E","non-repeat","null","403","stimuli/field_14.jpg","","","","",""
"","","","","","image-keyboard-response","463","2.0.0","472163","pppnvxzgt5o","A17689315","null","stimuli/kitchen_33.jpg","null","kitchen","F","non-repeat","null","404","stimuli/kitchen_33.jpg","","","","",""
"","","","","","html-keyboard-response","464","2.0.0","536648","pppnvxzgt5o","A17689315","64484","
    <div style='width:900px;margin: auto;'><p>In the next part of the experiment, we want to see how well you learned the structure in the stream of images.</p>
    <p>On each trial, you will see two sequences of three images, sequence 1 and 2. We will ask you to indicate which sequence was more familiar based on the first part of the experiment.</p>
    <p>Press 1 if the first sequence (sequence 1) felt more familiar. Press 2 if the second sequence (sequence 2) felt more familiar.</p>
    <p>Press any key to begin.</p></div>"," ","","","","","","","","","","",""
"","","","","","html-keyboard-response","465","2.0.0","537650","pppnvxzgt5o","A17689315","null","<p>Sequence 1</p>","null","","","","","","","","","","",""
"","","","","","image-keyboard-response","466","2.0.0","538651","pppnvxzgt5o","A17689315","null","stimuli/gym_47.jpg","null","","","","","","","","","","",""
"","","","","","image-keyboard-response","467","2.0.0","539653","pppnvxzgt5o","A17689315","null","stimuli/playground_18.jpg","null","","","","","","","","","","",""
"","","","","","image-keyboard-response","468","2.0.0","540656","pppnvxzgt5o","A17689315","null","stimuli/street_31.jpg","null","","","","","","","","","","",""
"","","","","","html-keyboard-response","469","2.0.0","541657","pppnvxzgt5o","A17689315","null","<p></p>","null","","","","","","","","","","",""
"","","","","","html-keyboard-response","470","2.0.0","542658","pppnvxzgt5o","A17689315","null","<p>Sequence 2</p>","null","","","","","","","","","","",""
"","","","","","image-keyboard-response","471","2.0.0","543661","pppnvxzgt5o","A17689315","null","stimuli/bathroom_12.jpg","null","","","","","","","","","","",""
"","","","","","image-keyboard-response","472","2.0.0","544662","pppnvxzgt5o","A17689315","null","stimuli/playground_18.jpg","null","","","","","","","","","","",""
"","","","","","image-keyboard-response","473","2.0.0","545664","pppnvxzgt5o","A17689315","null","stimuli/desert_29.jpg","null","","","","","","","","","","",""
"","","","","","html-keyboard-response","474","2.0.0","546536","pppnvxzgt5o","A17689315","871","<p>Press '1' if the first sequence was familiar, '2' if the second was.</p>","1","","","1","","","","[""J"",""K"",""L""]","[""G"",""K"",""C""]","true","[""<p>Sequence 1</p>"",""stimuli/gym_47.jpg"",""stimuli/playground_18.jpg"",""stimuli/street_31.jpg""]","[""<p>Sequence 2</p>"",""stimuli/bathroom_12.jpg"",""stimuli/playground_18.jpg"",""stimuli/desert_29.jpg""]"
"","","","","","html-keyboard-response","475","2.0.0","547537","pppnvxzgt5o","A17689315","null","<p>Sequence 1</p>","null","","","","","","","","","","",""
"","","","","","image-keyboard-response","476","2.0.0","548539","pppnvxzgt5o","A17689315","null","stimuli/gym_47.jpg","null","","","","","","","","","","",""
"","","","","","image-keyboard-response","477","2.0.0","549541","pppnvxzgt5o","A17689315","null","stimuli/playground_18.jpg","null","","","","","","","","","","",""
"","","","","","image-keyboard-response","478","2.0.0","550542","pppnvxzgt5o","A17689315","null","stimuli/street_31.jpg","null","","","","","","","","","","",""
"","","","","","html-keyboard-response","479","2.0.0","551545","pppnvxzgt5o","A17689315","null","<p></p>","null","","","","","","","","","","",""
"","","","","","html-keyboard-response","480","2.0.0","552547","pppnvxzgt5o","A17689315","null","<p>Sequence 2</p>","null","","","","","","","","","","",""
"","","","","","image-keyboard-response","481","2.0.0","553548","pppnvxzgt5o","A17689315","null","stimuli/bridge_21.jpg","null","","","","","","","","","","",""
"","","","","","image-keyboard-response","482","2.0.0","554549","pppnvxzgt5o","A17689315","null","stimuli/woods_13.jpg","null","","","","","","","","","","",""
"","","","","","image-keyboard-response","483","2.0.0","555551","pppnvxzgt5o","A17689315","null","stimuli/street_31.jpg","null","","","","","","","","","","",""
"","","","","","html-keyboard-response","484","2.0.0","556106","pppnvxzgt5o","A17689315","554","<p>Press '1' if the first sequence was familiar, '2' if the second was.</p>","1","","","1","","","","[""J"",""K"",""L""]","[""D"",""H"",""L""]","true","[""<p>Sequence 1</p>"",""stimuli/gym_47.jpg"",""stimuli/playground_18.jpg"",""stimuli/street_31.jpg""]","[""<p>Sequence 2</p>"",""stimuli/bridge_21.jpg"",""stimuli/woods_13.jpg"",""stimuli/street_31.jpg""]"
"","","","","","html-keyboard-response","485","2.0.0","557106","pppnvxzgt5o","A17689315","null","<p>Sequence 1</p>","null","","","","","","","","","","",""
"","","","","","image-keyboard-response","486","2.0.0","558108","pppnvxzgt5o","A17689315","null","stimuli/coast_20.jpg","null","","","","","","","","","","",""
"","","","","","image-keyboard-response","487","2.0.0","559110","pppnvxzgt5o","A17689315","null","stimuli/bar_56.jpg","null","","","","","","","","","","",""
"","","","","","image-keyboard-response","488","2.0.0","560112","pppnvxzgt5o","A17689315","null","stimuli/desert_29.jpg","null","","","","","","","","","","",""
"","","","","","html-keyboard-response","489","2.0.0","561113","pppnvxzgt5o","A17689315","null","<p></p>","null","","","","","","","","","","",""
"","","","","","html-keyboard-response","490","2.0.0","562115","pppnvxzgt5o","A17689315","null","<p>Sequence 2</p>","null","","","","","","","","","","",""
"","","","","","image-keyboard-response","491","2.0.0","563117","pppnvxzgt5o","A17689315","null","stimuli/gym_47.jpg","null","","","","","","","","","","",""
"","","","","","image-keyboard-response","492","2.0.0","564118","pppnvxzgt5o","A17689315","null","stimuli/bar_56.jpg","null","","","","","","","","","","",""
