"success","timeout","failed_images","failed_audio","failed_video","trial_type","trial_index","plugin_version","time_elapsed","random_id","participant","rt","stimulus","response","category","letter","correct_response","correct_response_key","trial_counter","current_image","test_triplet","foil_triplet","correct","firstSequencePaths","secondSequencePaths"
"true","false","[]","[]","[]","preload","0","2.0.0","1152","pq975lypb5a","squirrel","","","","","","","","","","","","","",""
"true","","","","","fullscreen","1","null","2988","pq975lypb5a","squirrel","832","","","","","","","","","","","","",""
"","","","","","html-keyboard-response","2","2.0.0","3652","pq975lypb5a","squirrel","662","Welcome to the experiment. Press any key to begin."," ","","","","","","","","","","",""
"","","","","","survey-text","3","2.0.0","6024","pq975lypb5a","squirrel","2368","","{""participant_id"":""squirrel""}","","","","","","","","","","",""
"","","","","","html-keyboard-response","4","2.0.0","7016","pq975lypb5a","squirrel","991","
  <p>For this trial, you will see a series of images.</p>
  <p><b>Press the spacebar whenever you see the same image appear twice in a row.</b></p>
  <p>In other words, whenever the same image repeats back to back, press the spacebar.</p>
  <p>Press any key to begin.</p>"," ","","","","","","","","","","",""
"","","","","","image-keyboard-response","5","2.0.0","8020","pq975lypb5a","squirrel","null","stimuli/bridge_13.jpg","null","bridge","D","non-repeat","null","0","stimuli/bridge_13.jpg","","","","",""
"","","","","","image-keyboard-response","6","2.0.0","9025","pq975lypb5a","squirrel","null","stimuli/bathroom_28.jpg","null","bathroom","E","non-repeat","null","1","stimuli/bathroom_28.jpg","","","","",""
"","","","","","image-keyboard-response","7","2.0.0","10030","pq975lypb5a","squirrel","null","stimuli/woods_26.jpg","null","woods","F","non-repeat","null","2","stimuli/woods_26.jpg","","","","",""
"","","","","","image-keyboard-response","8","2.0.0","11034","pq975lypb5a","squirrel","null","stimuli/street_32.jpg","null","street","A","non-repeat","null","3","stimuli/street_32.jpg","","","","",""
"","","","","","image-keyboard-response","9","2.0.0","12037","pq975lypb5a","squirrel","null","stimuli/coast_23.jpg","null","coast","B","non-repeat","null","4","stimuli/coast_23.jpg","","","","",""
"","","","","","image-keyboard-response","10","2.0.0","13041","pq975lypb5a","squirrel","null","stimuli/bar_56.jpg","null","bar","C","non-repeat","null","5","stimuli/bar_56.jpg","","","","",""
"","","","","","image-keyboard-response","11","2.0.0","14043","pq975lypb5a","squirrel","null","stimuli/bar_56.jpg","null","bar","C","repeat"," ","5","","","","","",""
"","","","","","image-keyboard-response","12","2.0.0","15048","pq975lypb5a","squirrel","125","stimuli/gym_33.jpg"," ","gym","G","non-repeat","null","6","stimuli/gym_33.jpg","","","","",""
"","","","","","image-keyboard-response","13","2.0.0","16051","pq975lypb5a","squirrel","null","stimuli/desert_36.jpg","null","desert","H","non-repeat","null","7","stimuli/desert_36.jpg","","","","",""
"","","","","","image-keyboard-response","14","2.0.0","17055","pq975lypb5a","squirrel","null","stimuli/stream_29.jpg","null","stream","I","non-repeat","null","8","stimuli/stream_29.jpg","","","","",""
"","","","","","image-keyboard-response","15","2.0.0","18060","pq975lypb5a","squirrel","null","stimuli/field_37.jpg","null","field","J","non-repeat","null","9","stimuli/field_37.jpg","","","","",""
"","","","","","image-keyboard-response","16","2.0.0","19063","pq975lypb5a","squirrel","null","stimuli/kitchen_60.jpg","null","kitchen","K","non-repeat","null","10","stimuli/kitchen_60.jpg","","","","",""
"","","","","","image-keyboard-response","17","2.0.0","20064","pq975lypb5a","squirrel","null","stimuli/playground_26.jpg","null","playground","L","non-repeat","null","11","stimuli/playground_26.jpg","","","","",""
"","","","","","image-keyboard-response","18","2.0.0","21067","pq975lypb5a","squirrel","null","stimuli/street_32.jpg","null","street","A","non-repeat","null","12","stimuli/street_32.jpg","","","","",""
"","","","","","image-keyboard-response","19","2.0.0","22071","pq975lypb5a","squirrel","null","stimuli/coast_23.jpg","null","coast","B","non-repeat","null","13","stimuli/coast_23.jpg","","","","",""
"","","","","","image-keyboard-response","20","2.0.0","23075","pq975lypb5a","squirrel","598","stimuli/bar_56.jpg"," ","bar","C","non-repeat","null","14","stimuli/bar_56.jpg","","","","",""
"","","","","","image-keyboard-response","21","2.0.0","24079","pq975lypb5a","squirrel","560","stimuli/bar_56.jpg"," ","bar","C","repeat"," ","14","","","","","",""
"","","","","","image-keyboard-response","22","2.0.0","25083","pq975lypb5a","squirrel","null","stimuli/bridge_13.jpg","null","bridge","D","non-repeat","null","15","stimuli/bridge_13.jpg","","","","",""
"","","","","","image-keyboard-response","23","2.0.0","26086","pq975lypb5a","squirrel","471","stimuli/bathroom_28.jpg"," ","bathroom","E","non-repeat","null","16","stimuli/bathroom_28.jpg","","","","",""
"","","","","","image-keyboard-response","24","2.0.0","27090","pq975lypb5a","squirrel","null","stimuli/woods_26.jpg","null","woods","F","non-repeat","null","17","stimuli/woods_26.jpg","","","","",""
"","","","","","image-keyboard-response","25","2.0.0","28094","pq975lypb5a","squirrel","546","stimuli/woods_26.jpg"," ","woods","F","repeat"," ","17","","","","","",""
"","","","","","image-keyboard-response","26","2.0.0","29099","pq975lypb5a","squirrel","null","stimuli/street_32.jpg","null","street","A","non-repeat","null","18","stimuli/street_32.jpg","","","","",""
"","","","","","image-keyboard-response","27","2.0.0","30102","pq975lypb5a","squirrel","null","stimuli/coast_23.jpg","null","coast","B","non-repeat","null","19","stimuli/coast_23.jpg","","","","",""
"","","","","","image-keyboard-response","28","2.0.0","31106","pq975lypb5a","squirrel","null","stimuli/bar_56.jpg","null","bar","C","non-repeat","null","20","stimuli/bar_56.jpg","","","","",""
"","","","","","image-keyboard-response","29","2.0.0","32109","pq975lypb5a","squirrel","null","stimuli/field_37.jpg","null","field","J","non-repeat","null","21","stimuli/field_37.jpg","","","","",""
"","","","","","image-keyboard-response","30","2.0.0","33113","pq975lypb5a","squirrel","null","stimuli/kitchen_60.jpg","null","kitchen","K","non-repeat","null","22","stimuli/kitchen_60.jpg","","","","",""
"","","","","","image-keyboard-response","31","2.0.0","34117","pq975lypb5a","squirrel","null","stimuli/playground_26.jpg","null","playground","L","non-repeat","null","23","stimuli/playground_26.jpg","","","","",""
"","","","","","image-keyboard-response","32","2.0.0","35121","pq975lypb5a","squirrel","null","stimuli/gym_33.jpg","null","gym","G","non-repeat","null","24","stimuli/gym_33.jpg","","","","",""
"","","","","","image-keyboard-response","33","2.0.0","36125","pq975lypb5a","squirrel","null","stimuli/desert_36.jpg","null","desert","H","non-repeat","null","25","stimuli/desert_36.jpg","","","","",""
"","","","","","image-keyboard-response","34","2.0.0","37129","pq975lypb5a","squirrel","null","stimuli/stream_29.jpg","null","stream","I","non-repeat","null","26","stimuli/stream_29.jpg","","","","",""
"","","","","","image-keyboard-response","35","2.0.0","38132","pq975lypb5a","squirrel","null","stimuli/field_37.jpg","null","field","J","non-repeat","null","27","stimuli/field_37.jpg","","","","",""
"","","","","","image-keyboard-response","36","2.0.0","39137","pq975lypb5a","squirrel","null","stimuli/kitchen_60.jpg","null","kitchen","K","non-repeat","null","28","stimuli/kitchen_60.jpg","","","","",""
"","","","","","image-keyboard-response","37","2.0.0","40141","pq975lypb5a","squirrel","null","stimuli/playground_26.jpg","null","playground","L","non-repeat","null","29","stimuli/playground_26.jpg","","","","",""
"","","","","","image-keyboard-response","38","2.0.0","41144","pq975lypb5a","squirrel","null","stimuli/street_32.jpg","null","street","A","non-repeat","null","30","stimuli/street_32.jpg","","","","",""
"","","","","","image-keyboard-response","39","2.0.0","42146","pq975lypb5a","squirrel","null","stimuli/coast_23.jpg","null","coast","B","non-repeat","null","31","stimuli/coast_23.jpg","","","","",""
"","","","","","image-keyboard-response","40","2.0.0","43151","pq975lypb5a","squirrel","null","stimuli/bar_56.jpg","null","bar","C","non-repeat","null","32","stimuli/bar_56.jpg","","","","",""
"","","","","","image-keyboard-response","41","2.0.0","44153","pq975lypb5a","squirrel","null","stimuli/bridge_13.jpg","null","bridge","D","non-repeat","null","33","stimuli/bridge_13.jpg","","","","",""
"","","","","","image-keyboard-response","42","2.0.0","45157","pq975lypb5a","squirrel","620","stimuli/bridge_13.jpg"," ","bridge","D","repeat"," ","33","","","","","",""
"","","","","","image-keyboard-response","43","2.0.0","46161","pq975lypb5a","squirrel","null","stimuli/bathroom_28.jpg","null","bathroom","E","non-repeat","null","34","stimuli/bathroom_28.jpg","","","","",""
"","","","","","image-keyboard-response","44","2.0.0","47164","pq975lypb5a","squirrel","null","stimuli/woods_26.jpg","null","woods","F","non-repeat","null","35","stimuli/woods_26.jpg","","","","",""
"","","","","","image-keyboard-response","45","2.0.0","48167","pq975lypb5a","squirrel","null","stimuli/field_37.jpg","null","field","J","non-repeat","null","36","stimuli/field_37.jpg","","","","",""
"","","","","","image-keyboard-response","46","2.0.0","49171","pq975lypb5a","squirrel","null","stimuli/kitchen_60.jpg","null","kitchen","K","non-repeat","null","37","stimuli/kitchen_60.jpg","","","","",""
"","","","","","image-keyboard-response","47","2.0.0","50174","pq975lypb5a","squirrel","null","stimuli/playground_26.jpg","null","playground","L","non-repeat","null","38","stimuli/playground_26.jpg","","","","",""
"","","","","","image-keyboard-response","48","2.0.0","51178","pq975lypb5a","squirrel","null","stimuli/bridge_13.jpg","null","bridge","D","non-repeat","null","39","stimuli/bridge_13.jpg","","","","",""
"","","","","","image-keyboard-response","49","2.0.0","52182","pq975lypb5a","squirrel","null","stimuli/bathroom_28.jpg","null","bathroom","E","non-repeat","null","40","stimuli/bathroom_28.jpg","","","","",""
"","","","","","image-keyboard-response","50","2.0.0","53185","pq975lypb5a","squirrel","null","stimuli/woods_26.jpg","null","woods","F","non-repeat","null","41","stimuli/woods_26.jpg","","","","",""
"","","","","","image-keyboard-response","51","2.0.0","54188","pq975lypb5a","squirrel","null","stimuli/street_32.jpg","null","street","A","non-repeat","null","42","stimuli/street_32.jpg","","","","",""
"","","","","","image-keyboard-response","52","2.0.0","55191","pq975lypb5a","squirrel","null","stimuli/coast_23.jpg","null","coast","B","non-repeat","null","43","stimuli/coast_23.jpg","","","","",""
"","","","","","image-keyboard-response","53","2.0.0","56194","pq975lypb5a","squirrel","null","stimuli/bar_56.jpg","null","bar","C","non-repeat","null","44","stimuli/bar_56.jpg","","","","",""
"","","","","","image-keyboard-response","54","2.0.0","57197","pq975lypb5a","squirrel","411","stimuli/bar_56.jpg"," ","bar","C","repeat"," ","44","","","","","",""
"","","","","","image-keyboard-response","55","2.0.0","58199","pq975lypb5a","squirrel","null","stimuli/bridge_13.jpg","null","bridge","D","non-repeat","null","45","stimuli/bridge_13.jpg","","","","",""
"","","","","","image-keyboard-response","56","2.0.0","59203","pq975lypb5a","squirrel","null","stimuli/bridge_13.jpg","null","bridge","D","repeat"," ","45","","","","","",""
"","","","","","image-keyboard-response","57","2.0.0","60207","pq975lypb5a","squirrel","null","stimuli/bathroom_28.jpg","null","bathroom","E","non-repeat","null","46","stimuli/bathroom_28.jpg","","","","",""
"","","","","","image-keyboard-response","58","2.0.0","61211","pq975lypb5a","squirrel","null","stimuli/woods_26.jpg","null","woods","F","non-repeat","null","47","stimuli/woods_26.jpg","","","","",""
"","","","","","image-keyboard-response","59","2.0.0","62214","pq975lypb5a","squirrel","null","stimuli/gym_33.jpg","null","gym","G","non-repeat","null","48","stimuli/gym_33.jpg","","","","",""
"","","","","","image-keyboard-response","60","2.0.0","63217","pq975lypb5a","squirrel","null","stimuli/desert_36.jpg","null","desert","H","non-repeat","null","49","stimuli/desert_36.jpg","","","","",""
"","","","","","image-keyboard-response","61","2.0.0","64220","pq975lypb5a","squirrel","null","stimuli/stream_29.jpg","null","stream","I","non-repeat","null","50","stimuli/stream_29.jpg","","","","",""
"","","","","","image-keyboard-response","62","2.0.0","65225","pq975lypb5a","squirrel","586","stimuli/stream_29.jpg"," ","stream","I","repeat"," ","50","","","","","",""
"","","","","","image-keyboard-response","63","2.0.0","66228","pq975lypb5a","squirrel","null","stimuli/field_37.jpg","null","field","J","non-repeat","null","51","stimuli/field_37.jpg","","","","",""
"","","","","","image-keyboard-response","64","2.0.0","67232","pq975lypb5a","squirrel","785","stimuli/field_37.jpg"," ","field","J","repeat"," ","51","","","","","",""
"","","","","","image-keyboard-response","65","2.0.0","68236","pq975lypb5a","squirrel","null","stimuli/kitchen_60.jpg","null","kitchen","K","non-repeat","null","52","stimuli/kitchen_60.jpg","","","","",""
"","","","","","image-keyboard-response","66","2.0.0","69239","pq975lypb5a","squirrel","null","stimuli/playground_26.jpg","null","playground","L","non-repeat","null","53","stimuli/playground_26.jpg","","","","",""
"","","","","","image-keyboard-response","67","2.0.0","70243","pq975lypb5a","squirrel","495","stimuli/playground_26.jpg"," ","playground","L","repeat"," ","53","","","","","",""
"","","","","","image-keyboard-response","68","2.0.0","71246","pq975lypb5a","squirrel","null","stimuli/street_32.jpg","null","street","A","non-repeat","null","54","stimuli/street_32.jpg","","","","",""
"","","","","","image-keyboard-response","69","2.0.0","72250","pq975lypb5a","squirrel","null","stimuli/coast_23.jpg","null","coast","B","non-repeat","null","55","stimuli/coast_23.jpg","","","","",""
"","","","","","image-keyboard-response","70","2.0.0","73252","pq975lypb5a","squirrel","null","stimuli/bar_56.jpg","null","bar","C","non-repeat","null","56","stimuli/bar_56.jpg","","","","",""
"","","","","","image-keyboard-response","71","2.0.0","74256","pq975lypb5a","squirrel","null","stimuli/field_37.jpg","null","field","J","non-repeat","null","57","stimuli/field_37.jpg","","","","",""
"","","","","","image-keyboard-response","72","2.0.0","75260","pq975lypb5a","squirrel","null","stimuli/kitchen_60.jpg","null","kitchen","K","non-repeat","null","58","stimuli/kitchen_60.jpg","","","","",""
"","","","","","image-keyboard-response","73","2.0.0","76264","pq975lypb5a","squirrel","null","stimuli/playground_26.jpg","null","playground","L","non-repeat","null","59","stimuli/playground_26.jpg","","","","",""
"","","","","","image-keyboard-response","74","2.0.0","77268","pq975lypb5a","squirrel","null","stimuli/gym_33.jpg","null","gym","G","non-repeat","null","60","stimuli/gym_33.jpg","","","","",""
"","","","","","image-keyboard-response","75","2.0.0","78272","pq975lypb5a","squirrel","364","stimuli/gym_33.jpg"," ","gym","G","repeat"," ","60","","","","","",""
"","","","","","image-keyboard-response","76","2.0.0","79276","pq975lypb5a","squirrel","null","stimuli/desert_36.jpg","null","desert","H","non-repeat","null","61","stimuli/desert_36.jpg","","","","",""
"","","","","","image-keyboard-response","77","2.0.0","80280","pq975lypb5a","squirrel","null","stimuli/stream_29.jpg","null","stream","I","non-repeat","null","62","stimuli/stream_29.jpg","","","","",""
"","","","","","image-keyboard-response","78","2.0.0","81283","pq975lypb5a","squirrel","null","stimuli/field_37.jpg","null","field","J","non-repeat","null","63","stimuli/field_37.jpg","","","","",""
"","","","","","image-keyboard-response","79","2.0.0","82286","pq975lypb5a","squirrel","null","stimuli/kitchen_60.jpg","null","kitchen","K","non-repeat","null","64","stimuli/kitchen_60.jpg","","","","",""
"","","","","","image-keyboard-response","80","2.0.0","83289","pq975lypb5a","squirrel","null","stimuli/playground_26.jpg","null","playground","L","non-repeat","null","65","stimuli/playground_26.jpg","","","","",""
"","","","","","image-keyboard-response","81","2.0.0","84292","pq975lypb5a","squirrel","null","stimuli/street_32.jpg","null","street","A","non-repeat","null","66","stimuli/street_32.jpg","","","","",""
"","","","","","image-keyboard-response","82","2.0.0","85297","pq975lypb5a","squirrel","451","stimuli/street_32.jpg"," ","street","A","repeat"," ","66","","","","","",""
"","","","","","image-keyboard-response","83","2.0.0","86299","pq975lypb5a","squirrel","null","stimuli/coast_23.jpg","null","coast","B","non-repeat","null","67","stimuli/coast_23.jpg","","","","",""
"","","","","","image-keyboard-response","84","2.0.0","87302","pq975lypb5a","squirrel","null","stimuli/bar_56.jpg","null","bar","C","non-repeat","null","68","stimuli/bar_56.jpg","","","","",""
"","","","","","image-keyboard-response","85","2.0.0","88307","pq975lypb5a","squirrel","355","stimuli/gym_33.jpg"," ","gym","G","non-repeat","null","69","stimuli/gym_33.jpg","","","","",""
"","","","","","image-keyboard-response","86","2.0.0","89311","pq975lypb5a","squirrel","null","stimuli/desert_36.jpg","null","desert","H","non-repeat","null","70","stimuli/desert_36.jpg","","","","",""
"","","","","","image-keyboard-response","87","2.0.0","90314","pq975lypb5a","squirrel","null","stimuli/stream_29.jpg","null","stream","I","non-repeat","null","71","stimuli/stream_29.jpg","","","","",""
"","","","","","image-keyboard-response","88","2.0.0","91318","pq975lypb5a","squirrel","null","stimuli/street_32.jpg","null","street","A","non-repeat","null","72","stimuli/street_32.jpg","","","","",""
"","","","","","image-keyboard-response","89","2.0.0","92322","pq975lypb5a","squirrel","459","stimuli/street_32.jpg"," ","street","A","repeat"," ","72","","","","","",""
"","","","","","image-keyboard-response","90","2.0.0","93325","pq975lypb5a","squirrel","null","stimuli/coast_23.jpg","null","coast","B","non-repeat","null","73","stimuli/coast_23.jpg","","","","",""
"","","","","","image-keyboard-response","91","2.0.0","94329","pq975lypb5a","squirrel","null","stimuli/bar_56.jpg","null","bar","C","non-repeat","null","74","stimuli/bar_56.jpg","","","","",""
"","","","","","image-keyboard-response","92","2.0.0","95333","pq975lypb5a","squirrel","null","stimuli/field_37.jpg","null","field","J","non-repeat","null","75","stimuli/field_37.jpg","","","","",""
"","","","","","image-keyboard-response","93","2.0.0","96336","pq975lypb5a","squirrel","null","stimuli/kitchen_60.jpg","null","kitchen","K","non-repeat","null","76","stimuli/kitchen_60.jpg","","","","",""
"","","","","","image-keyboard-response","94","2.0.0","97341","pq975lypb5a","squirrel","null","stimuli/playground_26.jpg","null","playground","L","non-repeat","null","77","stimuli/playground_26.jpg","","","","",""
"","","","","","image-keyboard-response","95","2.0.0","98344","pq975lypb5a","squirrel","null","stimuli/bridge_13.jpg","null","bridge","D","non-repeat","null","78","stimuli/bridge_13.jpg","","","","",""
"","","","","","image-keyboard-response","96","2.0.0","99348","pq975lypb5a","squirrel","null","stimuli/bathroom_28.jpg","null","bathroom","E","non-repeat","null","79","stimuli/bathroom_28.jpg","","","","",""
"","","","","","image-keyboard-response","97","2.0.0","100352","pq975lypb5a","squirrel","null","stimuli/woods_26.jpg","null","woods","F","non-repeat","null","80","stimuli/woods_26.jpg","","","","",""
"","","","","","image-keyboard-response","98","2.0.0","101355","pq975lypb5a","squirrel","null","stimuli/street_32.jpg","null","street","A","non-repeat","null","81","stimuli/street_32.jpg","","","","",""
"","","","","","image-keyboard-response","99","2.0.0","102359","pq975lypb5a","squirrel","null","stimuli/coast_23.jpg","null","coast","B","non-repeat","null","82","stimuli/coast_23.jpg","","","","",""
"","","","","","image-keyboard-response","100","2.0.0","103362","pq975lypb5a","squirrel","null","stimuli/bar_56.jpg","null","bar","C","non-repeat","null","83","stimuli/bar_56.jpg","","","","",""
"","","","","","image-keyboard-response","101","2.0.0","104366","pq975lypb5a","squirrel","393","stimuli/bar_56.jpg"," ","bar","C","repeat"," ","83","","","","","",""
"","","","","","image-keyboard-response","102","2.0.0","105370","pq975lypb5a","squirrel","null","stimuli/field_37.jpg","null","field","J","non-repeat","null","84","stimuli/field_37.jpg","","","","",""
"","","","","","image-keyboard-response","103","2.0.0","106374","pq975lypb5a","squirrel","null","stimuli/kitchen_60.jpg","null","kitchen","K","non-repeat","null","85","stimuli/kitchen_60.jpg","","","","",""
"","","","","","image-keyboard-response","104","2.0.0","107376","pq975lypb5a","squirrel","null","stimuli/playground_26.jpg","null","playground","L","non-repeat","null","86","stimuli/playground_26.jpg","","","","",""
"","","","","","image-keyboard-response","105","2.0.0","108381","pq975lypb5a","squirrel","null","stimuli/street_32.jpg","null","street","A","non-repeat","null","87","stimuli/street_32.jpg","","","","",""
"","","","","","image-keyboard-response","106","2.0.0","109385","pq975lypb5a","squirrel","null","stimuli/coast_23.jpg","null","coast","B","non-repeat","null","88","stimuli/coast_23.jpg","","","","",""
"","","","","","image-keyboard-response","107","2.0.0","110388","pq975lypb5a","squirrel","null","stimuli/bar_56.jpg","null","bar","C","non-repeat","null","89","stimuli/bar_56.jpg","","","","",""
"","","","","","image-keyboard-response","108","2.0.0","111392","pq975lypb5a","squirrel","null","stimuli/bridge_13.jpg","null","bridge","D","non-repeat","null","90","stimuli/bridge_13.jpg","","","","",""
"","","","","","image-keyboard-response","109","2.0.0","112396","pq975lypb5a","squirrel","null","stimuli/bathroom_28.jpg","null","bathroom","E","non-repeat","null","91","stimuli/bathroom_28.jpg","","","","",""
"","","","","","image-keyboard-response","110","2.0.0","113399","pq975lypb5a","squirrel","null","stimuli/woods_26.jpg","null","woods","F","non-repeat","null","92","stimuli/woods_26.jpg","","","","",""
"","","","","","image-keyboard-response","111","2.0.0","114402","pq975lypb5a","squirrel","null","stimuli/street_32.jpg","null","street","A","non-repeat","null","93","stimuli/street_32.jpg","","","","",""
"","","","","","image-keyboard-response","112","2.0.0","115406","pq975lypb5a","squirrel","401","stimuli/street_32.jpg"," ","street","A","repeat"," ","93","","","","","",""
"","","","","","image-keyboard-response","113","2.0.0","116410","pq975lypb5a","squirrel","null","stimuli/coast_23.jpg","null","coast","B","non-repeat","null","94","stimuli/coast_23.jpg","","","","",""
"","","","","","image-keyboard-response","114","2.0.0","117414","pq975lypb5a","squirrel","null","stimuli/bar_56.jpg","null","bar","C","non-repeat","null","95","stimuli/bar_56.jpg","","","","",""
"","","","","","image-keyboard-response","115","2.0.0","118419","pq975lypb5a","squirrel","null","stimuli/bridge_13.jpg","null","bridge","D","non-repeat","null","96","stimuli/bridge_13.jpg","","","","",""
"","","","","","image-keyboard-response","116","2.0.0","119423","pq975lypb5a","squirrel","null","stimuli/bathroom_28.jpg","null","bathroom","E","non-repeat","null","97","stimuli/bathroom_28.jpg","","","","",""
"","","","","","image-keyboard-response","117","2.0.0","120427","pq975lypb5a","squirrel","null","stimuli/woods_26.jpg","null","woods","F","non-repeat","null","98","stimuli/woods_26.jpg","","","","",""
"","","","","","image-keyboard-response","118","2.0.0","121431","pq975lypb5a","squirrel","null","stimuli/gym_33.jpg","null","gym","G","non-repeat","null","99","stimuli/gym_33.jpg","","","","",""
"","","","","","image-keyboard-response","119","2.0.0","122435","pq975lypb5a","squirrel","null","stimuli/desert_36.jpg","null","desert","H","non-repeat","null","100","stimuli/desert_36.jpg","","","","",""
"","","","","","image-keyboard-response","120","2.0.0","123438","pq975lypb5a","squirrel","null","stimuli/stream_29.jpg","null","stream","I","non-repeat","null","101","stimuli/stream_29.jpg","","","","",""
"","","","","","image-keyboard-response","121","2.0.0","124441","pq975lypb5a","squirrel","null","stimuli/bridge_13.jpg","null","bridge","D","non-repeat","null","102","stimuli/bridge_13.jpg","","","","",""
"","","","","","image-keyboard-response","122","2.0.0","125444","pq975lypb5a","squirrel","null","stimuli/bathroom_28.jpg","null","bathroom","E","non-repeat","null","103","stimuli/bathroom_28.jpg","","","","",""
"","","","","","image-keyboard-response","123","2.0.0","126448","pq975lypb5a","squirrel","null","stimuli/woods_26.jpg","null","woods","F","non-repeat","null","104","stimuli/woods_26.jpg","","","","",""
"","","","","","image-keyboard-response","124","2.0.0","127452","pq975lypb5a","squirrel","null","stimuli/field_37.jpg","null","field","J","non-repeat","null","105","stimuli/field_37.jpg","","","","",""
"","","","","","image-keyboard-response","125","2.0.0","128455","pq975lypb5a","squirrel","null","stimuli/kitchen_60.jpg","null","kitchen","K","non-repeat","null","106","stimuli/kitchen_60.jpg","","","","",""
"","","","","","image-keyboard-response","126","2.0.0","129458","pq975lypb5a","squirrel","null","stimuli/playground_26.jpg","null","playground","L","non-repeat","null","107","stimuli/playground_26.jpg","","","","",""
"","","","","","image-keyboard-response","127","2.0.0","130463","pq975lypb5a","squirrel","null","stimuli/bridge_13.jpg","null","bridge","D","non-repeat","null","108","stimuli/bridge_13.jpg","","","","",""
"","","","","","image-keyboard-response","128","2.0.0","131468","pq975lypb5a","squirrel","796","stimuli/bridge_13.jpg"," ","bridge","D","repeat"," ","108","","","","","",""
"","","","","","image-keyboard-response","129","2.0.0","132471","pq975lypb5a","squirrel","null","stimuli/bathroom_28.jpg","null","bathroom","E","non-repeat","null","109","stimuli/bathroom_28.jpg","","","","",""
"","","","","","image-keyboard-response","130","2.0.0","133474","pq975lypb5a","squirrel","null","stimuli/woods_26.jpg","null","woods","F","non-repeat","null","110","stimuli/woods_26.jpg","","","","",""
"","","","","","image-keyboard-response","131","2.0.0","134477","pq975lypb5a","squirrel","null","stimuli/field_37.jpg","null","field","J","non-repeat","null","111","stimuli/field_37.jpg","","","","",""
"","","","","","image-keyboard-response","132","2.0.0","135481","pq975lypb5a","squirrel","null","stimuli/kitchen_60.jpg","null","kitchen","K","non-repeat","null","112","stimuli/kitchen_60.jpg","","","","",""
"","","","","","image-keyboard-response","133","2.0.0","136485","pq975lypb5a","squirrel","null","stimuli/playground_26.jpg","null","playground","L","non-repeat","null","113","stimuli/playground_26.jpg","","","","",""
"","","","","","image-keyboard-response","134","2.0.0","137489","pq975lypb5a","squirrel","null","stimuli/street_32.jpg","null","street","A","non-repeat","null","114","stimuli/street_32.jpg","","","","",""
"","","","","","image-keyboard-response","135","2.0.0","138493","pq975lypb5a","squirrel","420","stimuli/street_32.jpg"," ","street","A","repeat"," ","114","","","","","",""
"","","","","","image-keyboard-response","136","2.0.0","139497","pq975lypb5a","squirrel","null","stimuli/coast_23.jpg","null","coast","B","non-repeat","null","115","stimuli/coast_23.jpg","","","","",""
"","","","","","image-keyboard-response","137","2.0.0","140501","pq975lypb5a","squirrel","null","stimuli/bar_56.jpg","null","bar","C","non-repeat","null","116","stimuli/bar_56.jpg","","","","",""
"","","","","","image-keyboard-response","138","2.0.0","141505","pq975lypb5a","squirrel","null","stimuli/field_37.jpg","null","field","J","non-repeat","null","117","stimuli/field_37.jpg","","","","",""
"","","","","","image-keyboard-response","139","2.0.0","142509","pq975lypb5a","squirrel","null","stimuli/kitchen_60.jpg","null","kitchen","K","non-repeat","null","118","stimuli/kitchen_60.jpg","","","","",""
"","","","","","image-keyboard-response","140","2.0.0","143511","pq975lypb5a","squirrel","null","stimuli/playground_26.jpg","null","playground","L","non-repeat","null","119","stimuli/playground_26.jpg","","","","",""
"","","","","","image-keyboard-response","141","2.0.0","144514","pq975lypb5a","squirrel","null","stimuli/bridge_13.jpg","null","bridge","D","non-repeat","null","120","stimuli/bridge_13.jpg","","","","",""
"","","","","","image-keyboard-response","142","2.0.0","145518","pq975lypb5a","squirrel","null","stimuli/bathroom_28.jpg","null","bathroom","E","non-repeat","null","121","stimuli/bathroom_28.jpg","","","","",""
"","","","","","image-keyboard-response","143","2.0.0","146522","pq975lypb5a","squirrel","null","stimuli/woods_26.jpg","null","woods","F","non-repeat","null","122","stimuli/woods_26.jpg","","","","",""
"","","","","","image-keyboard-response","144","2.0.0","147525","pq975lypb5a","squirrel","null","stimuli/woods_26.jpg","null","woods","F","repeat"," ","122","","","","","",""
"","","","","","image-keyboard-response","145","2.0.0","148529","pq975lypb5a","squirrel","null","stimuli/field_37.jpg","null","field","J","non-repeat","null","123","stimuli/field_37.jpg","","","","",""
"","","","","","image-keyboard-response","146","2.0.0","149534","pq975lypb5a","squirrel","null","stimuli/kitchen_60.jpg","null","kitchen","K","non-repeat","null","124","stimuli/kitchen_60.jpg","","","","",""
"","","","","","image-keyboard-response","147","2.0.0","150538","pq975lypb5a","squirrel","null","stimuli/playground_26.jpg","null","playground","L","non-repeat","null","125","stimuli/playground_26.jpg","","","","",""
"","","","","","image-keyboard-response","148","2.0.0","151541","pq975lypb5a","squirrel","null","stimuli/gym_33.jpg","null","gym","G","non-repeat","null","126","stimuli/gym_33.jpg","","","","",""
"","","","","","image-keyboard-response","149","2.0.0","152545","pq975lypb5a","squirrel","null","stimuli/desert_36.jpg","null","desert","H","non-repeat","null","127","stimuli/desert_36.jpg","","","","",""
"","","","","","image-keyboard-response","150","2.0.0","153549","pq975lypb5a","squirrel","506","stimuli/stream_29.jpg"," ","stream","I","non-repeat","null","128","stimuli/stream_29.jpg","","","","",""
"","","","","","image-keyboard-response","151","2.0.0","154551","pq975lypb5a","squirrel","null","stimuli/field_37.jpg","null","field","J","non-repeat","null","129","stimuli/field_37.jpg","","","","",""
"","","","","","image-keyboard-response","152","2.0.0","155553","pq975lypb5a","squirrel","null","stimuli/kitchen_60.jpg","null","kitchen","K","non-repeat","null","130","stimuli/kitchen_60.jpg","","","","",""
"","","","","","image-keyboard-response","153","2.0.0","156555","pq975lypb5a","squirrel","null","stimuli/playground_26.jpg","null","playground","L","non-repeat","null","131","stimuli/playground_26.jpg","","","","",""
"","","","","","image-keyboard-response","154","2.0.0","157558","pq975lypb5a","squirrel","null","stimuli/gym_33.jpg","null","gym","G","non-repeat","null","132","stimuli/gym_33.jpg","","","","",""
"","","","","","image-keyboard-response","155","2.0.0","158561","pq975lypb5a","squirrel","null","stimuli/desert_36.jpg","null","desert","H","non-repeat","null","133","stimuli/desert_36.jpg","","","","",""
"","","","","","image-keyboard-response","156","2.0.0","159566","pq975lypb5a","squirrel","null","stimuli/stream_29.jpg","null","stream","I","non-repeat","null","134","stimuli/stream_29.jpg","","","","",""
"","","","","","image-keyboard-response","157","2.0.0","160570","pq975lypb5a","squirrel","null","stimuli/bridge_13.jpg","null","bridge","D","non-repeat","null","135","stimuli/bridge_13.jpg","","","","",""
"","","","","","image-keyboard-response","158","2.0.0","161574","pq975lypb5a","squirrel","null","stimuli/bathroom_28.jpg","null","bathroom","E","non-repeat","null","136","stimuli/bathroom_28.jpg","","","","",""
"","","","","","image-keyboard-response","159","2.0.0","162577","pq975lypb5a","squirrel","null","stimuli/woods_26.jpg","null","woods","F","non-repeat","null","137","stimuli/woods_26.jpg","","","","",""
"","","","","","image-keyboard-response","160","2.0.0","163581","pq975lypb5a","squirrel","null","stimuli/street_32.jpg","null","street","A","non-repeat","null","138","stimuli/street_32.jpg","","","","",""
"","","","","","image-keyboard-response","161","2.0.0","164585","pq975lypb5a","squirrel","null","stimuli/coast_23.jpg","null","coast","B","non-repeat","null","139","stimuli/coast_23.jpg","","","","",""
"","","","","","image-keyboard-response","162","2.0.0","165588","pq975lypb5a","squirrel","null","stimuli/bar_56.jpg","null","bar","C","non-repeat","null","140","stimuli/bar_56.jpg","","","","",""
"","","","","","image-keyboard-response","163","2.0.0","166592","pq975lypb5a","squirrel","null","stimuli/gym_33.jpg","null","gym","G","non-repeat","null","141","stimuli/gym_33.jpg","","","","",""
"","","","","","image-keyboard-response","164","2.0.0","167594","pq975lypb5a","squirrel","557","stimuli/gym_33.jpg"," ","gym","G","repeat"," ","141","","","","","",""
"","","","","","image-keyboard-response","165","2.0.0","168598","pq975lypb5a","squirrel","null","stimuli/desert_36.jpg","null","desert","H","non-repeat","null","142","stimuli/desert_36.jpg","","","","",""
"","","","","","image-keyboard-response","166","2.0.0","169600","pq975lypb5a","squirrel","null","stimuli/stream_29.jpg","null","stream","I","non-repeat","null","143","stimuli/stream_29.jpg","","","","",""
"","","","","","image-keyboard-response","167","2.0.0","170604","pq975lypb5a","squirrel","null","stimuli/field_37.jpg","null","field","J","non-repeat","null","144","stimuli/field_37.jpg","","","","",""
"","","","","","image-keyboard-response","168","2.0.0","171608","pq975lypb5a","squirrel","null","stimuli/kitchen_60.jpg","null","kitchen","K","non-repeat","null","145","stimuli/kitchen_60.jpg","","","","",""
"","","","","","image-keyboard-response","169","2.0.0","172611","pq975lypb5a","squirrel","null","stimuli/playground_26.jpg","null","playground","L","non-repeat","null","146","stimuli/playground_26.jpg","","","","",""
"","","","","","image-keyboard-response","170","2.0.0","173615","pq975lypb5a","squirrel","548","stimuli/playground_26.jpg"," ","playground","L","repeat"," ","146","","","","","",""
"","","","","","image-keyboard-response","171","2.0.0","174619","pq975lypb5a","squirrel","null","stimuli/bridge_13.jpg","null","bridge","D","non-repeat","null","147","stimuli/bridge_13.jpg","","","","",""
"","","","","","image-keyboard-response","172","2.0.0","175623","pq975lypb5a","squirrel","null","stimuli/bathroom_28.jpg","null","bathroom","E","non-repeat","null","148","stimuli/bathroom_28.jpg","","","","",""
"","","","","","image-keyboard-response","173","2.0.0","176626","pq975lypb5a","squirrel","null","stimuli/woods_26.jpg","null","woods","F","non-repeat","null","149","stimuli/woods_26.jpg","","","","",""
"","","","","","image-keyboard-response","174","2.0.0","177629","pq975lypb5a","squirrel","null","stimuli/gym_33.jpg","null","gym","G","non-repeat","null","150","stimuli/gym_33.jpg","","","","",""
"","","","","","image-keyboard-response","175","2.0.0","178632","pq975lypb5a","squirrel","null","stimuli/desert_36.jpg","null","desert","H","non-repeat","null","151","stimuli/desert_36.jpg","","","","",""
"","","","","","image-keyboard-response","176","2.0.0","179636","pq975lypb5a","squirrel","null","stimuli/stream_29.jpg","null","stream","I","non-repeat","null","152","stimuli/stream_29.jpg","","","","",""
"","","","","","image-keyboard-response","177","2.0.0","180640","pq975lypb5a","squirrel","null","stimuli/field_37.jpg","null","field","J","non-repeat","null","153","stimuli/field_37.jpg","","","","",""
"","","","","","image-keyboard-response","178","2.0.0","181644","pq975lypb5a","squirrel","null","stimuli/kitchen_60.jpg","null","kitchen","K","non-repeat","null","154","stimuli/kitchen_60.jpg","","","","",""
"","","","","","image-keyboard-response","179","2.0.0","182648","pq975lypb5a","squirrel","null","stimuli/playground_26.jpg","null","playground","L","non-repeat","null","155","stimuli/playground_26.jpg","","","","",""
"","","","","","image-keyboard-response","180","2.0.0","183651","pq975lypb5a","squirrel","null","stimuli/bridge_13.jpg","null","bridge","D","non-repeat","null","156","stimuli/bridge_13.jpg","","","","",""
"","","","","","image-keyboard-response","181","2.0.0","184654","pq975lypb5a","squirrel","424","stimuli/bridge_13.jpg"," ","bridge","D","repeat"," ","156","","","","","",""
"","","","","","image-keyboard-response","182","2.0.0","185657","pq975lypb5a","squirrel","null","stimuli/bathroom_28.jpg","null","bathroom","E","non-repeat","null","157","stimuli/bathroom_28.jpg","","","","",""
"","","","","","image-keyboard-response","183","2.0.0","186660","pq975lypb5a","squirrel","null","stimuli/woods_26.jpg","null","woods","F","non-repeat","null","158","stimuli/woods_26.jpg","","","","",""
"","","","","","image-keyboard-response","184","2.0.0","187664","pq975lypb5a","squirrel","589","stimuli/woods_26.jpg"," ","woods","F","repeat"," ","158","","","","","",""
"","","","","","image-keyboard-response","185","2.0.0","188669","pq975lypb5a","squirrel","null","stimuli/gym_33.jpg","null","gym","G","non-repeat","null","159","stimuli/gym_33.jpg","","","","",""
"","","","","","image-keyboard-response","186","2.0.0","189672","pq975lypb5a","squirrel","null","stimuli/desert_36.jpg","null","desert","H","non-repeat","null","160","stimuli/desert_36.jpg","","","","",""
"","","","","","image-keyboard-response","187","2.0.0","190676","pq975lypb5a","squirrel","null","stimuli/stream_29.jpg","null","stream","I","non-repeat","null","161","stimuli/stream_29.jpg","","","","",""
"","","","","","image-keyboard-response","188","2.0.0","191678","pq975lypb5a","squirrel","null","stimuli/street_32.jpg","null","street","A","non-repeat","null","162","stimuli/street_32.jpg","","","","",""
"","","","","","image-keyboard-response","189","2.0.0","192680","pq975lypb5a","squirrel","null","stimuli/coast_23.jpg","null","coast","B","non-repeat","null","163","stimuli/coast_23.jpg","","","","",""
"","","","","","image-keyboard-response","190","2.0.0","193684","pq975lypb5a","squirrel","null","stimuli/bar_56.jpg","null","bar","C","non-repeat","null","164","stimuli/bar_56.jpg","","","","",""
"","","","","","image-keyboard-response","191","2.0.0","194687","pq975lypb5a","squirrel","null","stimuli/gym_33.jpg","null","gym","G","non-repeat","null","165","stimuli/gym_33.jpg","","","","",""
"","","","","","image-keyboard-response","192","2.0.0","195692","pq975lypb5a","squirrel","459","stimuli/gym_33.jpg"," ","gym","G","repeat"," ","165","","","","","",""
"","","","","","image-keyboard-response","193","2.0.0","196696","pq975lypb5a","squirrel","null","stimuli/desert_36.jpg","null","desert","H","non-repeat","null","166","stimuli/desert_36.jpg","","","","",""
"","","","","","image-keyboard-response","194","2.0.0","197700","pq975lypb5a","squirrel","null","stimuli/stream_29.jpg","null","stream","I","non-repeat","null","167","stimuli/stream_29.jpg","","","","",""
"","","","","","image-keyboard-response","195","2.0.0","198703","pq975lypb5a","squirrel","null","stimuli/street_32.jpg","null","street","A","non-repeat","null","168","stimuli/street_32.jpg","","","","",""
"","","","","","image-keyboard-response","196","2.0.0","199706","pq975lypb5a","squirrel","null","stimuli/coast_23.jpg","null","coast","B","non-repeat","null","169","stimuli/coast_23.jpg","","","","",""
"","","","","","image-keyboard-response","197","2.0.0","200709","pq975lypb5a","squirrel","null","stimuli/bar_56.jpg","null","bar","C","non-repeat","null","170","stimuli/bar_56.jpg","","","","",""
"","","","","","image-keyboard-response","198","2.0.0","201712","pq975lypb5a","squirrel","null","stimuli/gym_33.jpg","null","gym","G","non-repeat","null","171","stimuli/gym_33.jpg","","","","",""
"","","","","","image-keyboard-response","199","2.0.0","202716","pq975lypb5a","squirrel","null","stimuli/desert_36.jpg","null","desert","H","non-repeat","null","172","stimuli/desert_36.jpg","","","","",""
"","","","","","image-keyboard-response","200","2.0.0","203720","pq975lypb5a","squirrel","null","stimuli/stream_29.jpg","null","stream","I","non-repeat","null","173","stimuli/stream_29.jpg","","","","",""
"","","","","","image-keyboard-response","201","2.0.0","204723","pq975lypb5a","squirrel","null","stimuli/field_37.jpg","null","field","J","non-repeat","null","174","stimuli/field_37.jpg","","","","",""
"","","","","","image-keyboard-response","202","2.0.0","205726","pq975lypb5a","squirrel","null","stimuli/kitchen_60.jpg","null","kitchen","K","non-repeat","null","175","stimuli/kitchen_60.jpg","","","","",""
"","","","","","image-keyboard-response","203","2.0.0","206730","pq975lypb5a","squirrel","null","stimuli/playground_26.jpg","null","playground","L","non-repeat","null","176","stimuli/playground_26.jpg","","","","",""
"","","","","","image-keyboard-response","204","2.0.0","207733","pq975lypb5a","squirrel","null","stimuli/bridge_13.jpg","null","bridge","D","non-repeat","null","177","stimuli/bridge_13.jpg","","","","",""
"","","","","","image-keyboard-response","205","2.0.0","208738","pq975lypb5a","squirrel","null","stimuli/bridge_13.jpg","null","bridge","D","repeat"," ","177","","","","","",""
"","","","","","image-keyboard-response","206","2.0.0","209741","pq975lypb5a","squirrel","null","stimuli/bathroom_28.jpg","null","bathroom","E","non-repeat","null","178","stimuli/bathroom_28.jpg","","","","",""
"","","","","","image-keyboard-response","207","2.0.0","210745","pq975lypb5a","squirrel","null","stimuli/woods_26.jpg","null","woods","F","non-repeat","null","179","stimuli/woods_26.jpg","","","","",""
"","","","","","image-keyboard-response","208","2.0.0","211749","pq975lypb5a","squirrel","null","stimuli/field_37.jpg","null","field","J","non-repeat","null","180","stimuli/field_37.jpg","","","","",""
"","","","","","image-keyboard-response","209","2.0.0","212753","pq975lypb5a","squirrel","null","stimuli/kitchen_60.jpg","null","kitchen","K","non-repeat","null","181","stimuli/kitchen_60.jpg","","","","",""
"","","","","","image-keyboard-response","210","2.0.0","213756","pq975lypb5a","squirrel","null","stimuli/playground_26.jpg","null","playground","L","non-repeat","null","182","stimuli/playground_26.jpg","","","","",""
"","","","","","image-keyboard-response","211","2.0.0","214761","pq975lypb5a","squirrel","null","stimuli/playground_26.jpg","null","playground","L","repeat"," ","182","","","","","",""
"","","","","","image-keyboard-response","212","2.0.0","215765","pq975lypb5a","squirrel","null","stimuli/street_32.jpg","null","street","A","non-repeat","null","183","stimuli/street_32.jpg","","","","",""
"","","","","","image-keyboard-response","213","2.0.0","216768","pq975lypb5a","squirrel","null","stimuli/coast_23.jpg","null","coast","B","non-repeat","null","184","stimuli/coast_23.jpg","","","","",""
"","","","","","image-keyboard-response","214","2.0.0","217772","pq975lypb5a","squirrel","null","stimuli/bar_56.jpg","null","bar","C","non-repeat","null","185","stimuli/bar_56.jpg","","","","",""
"","","","","","image-keyboard-response","215","2.0.0","218775","pq975lypb5a","squirrel","null","stimuli/field_37.jpg","null","field","J","non-repeat","null","186","stimuli/field_37.jpg","","","","",""
"","","","","","image-keyboard-response","216","2.0.0","219778","pq975lypb5a","squirrel","null","stimuli/kitchen_60.jpg","null","kitchen","K","non-repeat","null","187","stimuli/kitchen_60.jpg","","","","",""
"","","","","","image-keyboard-response","217","2.0.0","220780","pq975lypb5a","squirrel","null","stimuli/playground_26.jpg","null","playground","L","non-repeat","null","188","stimuli/playground_26.jpg","","","","",""
"","","","","","image-keyboard-response","218","2.0.0","221784","pq975lypb5a","squirrel","null","stimuli/street_32.jpg","null","street","A","non-repeat","null","189","stimuli/street_32.jpg","","","","",""
"","","","","","image-keyboard-response","219","2.0.0","222786","pq975lypb5a","squirrel","null","stimuli/coast_23.jpg","null","coast","B","non-repeat","null","190","stimuli/coast_23.jpg","","","","",""
"","","","","","image-keyboard-response","220","2.0.0","223791","pq975lypb5a","squirrel","null","stimuli/bar_56.jpg","null","bar","C","non-repeat","null","191","stimuli/bar_56.jpg","","","","",""
"","","","","","image-keyboard-response","221","2.0.0","224794","pq975lypb5a","squirrel","480","stimuli/bar_56.jpg"," ","bar","C","repeat"," ","191","","","","","",""
"","","","","","image-keyboard-response","222","2.0.0","225798","pq975lypb5a","squirrel","null","stimuli/bridge_13.jpg","null","bridge","D","non-repeat","null","192","stimuli/bridge_13.jpg","","","","",""
"","","","","","image-keyboard-response","223","2.0.0","226801","pq975lypb5a","squirrel","637","stimuli/bridge_13.jpg"," ","bridge","D","repeat"," ","192","","","","","",""
"","","","","","image-keyboard-response","224","2.0.0","227805","pq975lypb5a","squirrel","null","stimuli/bathroom_28.jpg","null","bathroom","E","non-repeat","null","193","stimuli/bathroom_28.jpg","","","","",""
"","","","","","image-keyboard-response","225","2.0.0","228809","pq975lypb5a","squirrel","null","stimuli/woods_26.jpg","null","woods","F","non-repeat","null","194","stimuli/woods_26.jpg","","","","",""
"","","","","","image-keyboard-response","226","2.0.0","229814","pq975lypb5a","squirrel","null","stimuli/street_32.jpg","null","street","A","non-repeat","null","195","stimuli/street_32.jpg","","","","",""
"","","","","","image-keyboard-response","227","2.0.0","230819","pq975lypb5a","squirrel","451","stimuli/street_32.jpg"," ","street","A","repeat"," ","195","","","","","",""
"","","","","","image-keyboard-response","228","2.0.0","231822","pq975lypb5a","squirrel","null","stimuli/coast_23.jpg","null","coast","B","non-repeat","null","196","stimuli/coast_23.jpg","","","","",""
"","","","","","image-keyboard-response","229","2.0.0","232826","pq975lypb5a","squirrel","null","stimuli/bar_56.jpg","null","bar","C","non-repeat","null","197","stimuli/bar_56.jpg","","","","",""
"","","","","","image-keyboard-response","230","2.0.0","233829","pq975lypb5a","squirrel","500","stimuli/bar_56.jpg"," ","bar","C","repeat"," ","197","","","","","",""
"","","","","","image-keyboard-response","231","2.0.0","234833","pq975lypb5a","squirrel","null","stimuli/gym_33.jpg","null","gym","G","non-repeat","null","198","stimuli/gym_33.jpg","","","","",""
"","","","","","image-keyboard-response","232","2.0.0","235836","pq975lypb5a","squirrel","null","stimuli/desert_36.jpg","null","desert","H","non-repeat","null","199","stimuli/desert_36.jpg","","","","",""
"","","","","","image-keyboard-response","233","2.0.0","236838","pq975lypb5a","squirrel","null","stimuli/stream_29.jpg","null","stream","I","non-repeat","null","200","stimuli/stream_29.jpg","","","","",""
"","","","","","image-keyboard-response","234","2.0.0","237840","pq975lypb5a","squirrel","570","stimuli/stream_29.jpg"," ","stream","I","repeat"," ","200","","","","","",""
"","","","","","image-keyboard-response","235","2.0.0","238843","pq975lypb5a","squirrel","null","stimuli/bridge_13.jpg","null","bridge","D","non-repeat","null","201","stimuli/bridge_13.jpg","","","","",""
"","","","","","image-keyboard-response","236","2.0.0","239847","pq975lypb5a","squirrel","null","stimuli/bathroom_28.jpg","null","bathroom","E","non-repeat","null","202","stimuli/bathroom_28.jpg","","","","",""
"","","","","","image-keyboard-response","237","2.0.0","240849","pq975lypb5a","squirrel","null","stimuli/woods_26.jpg","null","woods","F","non-repeat","null","203","stimuli/woods_26.jpg","","","","",""
"","","","","","image-keyboard-response","238","2.0.0","241853","pq975lypb5a","squirrel","null","stimuli/field_37.jpg","null","field","J","non-repeat","null","204","stimuli/field_37.jpg","","","","",""
"","","","","","image-keyboard-response","239","2.0.0","242857","pq975lypb5a","squirrel","null","stimuli/kitchen_60.jpg","null","kitchen","K","non-repeat","null","205","stimuli/kitchen_60.jpg","","","","",""
"","","","","","image-keyboard-response","240","2.0.0","243860","pq975lypb5a","squirrel","null","stimuli/playground_26.jpg","null","playground","L","non-repeat","null","206","stimuli/playground_26.jpg","","","","",""
"","","","","","image-keyboard-response","241","2.0.0","244861","pq975lypb5a","squirrel","null","stimuli/gym_33.jpg","null","gym","G","non-repeat","null","207","stimuli/gym_33.jpg","","","","",""
"","","","","","image-keyboard-response","242","2.0.0","245865","pq975lypb5a","squirrel","null","stimuli/desert_36.jpg","null","desert","H","non-repeat","null","208","stimuli/desert_36.jpg","","","","",""
"","","","","","image-keyboard-response","243","2.0.0","246868","pq975lypb5a","squirrel","null","stimuli/stream_29.jpg","null","stream","I","non-repeat","null","209","stimuli/stream_29.jpg","","","","",""
"","","","","","image-keyboard-response","244","2.0.0","247870","pq975lypb5a","squirrel","null","stimuli/bridge_13.jpg","null","bridge","D","non-repeat","null","210","stimuli/bridge_13.jpg","","","","",""
"","","","","","image-keyboard-response","245","2.0.0","248874","pq975lypb5a","squirrel","null","stimuli/bathroom_28.jpg","null","bathroom","E","non-repeat","null","211","stimuli/bathroom_28.jpg","","","","",""
"","","","","","image-keyboard-response","246","2.0.0","249877","pq975lypb5a","squirrel","null","stimuli/woods_26.jpg","null","woods","F","non-repeat","null","212","stimuli/woods_26.jpg","","","","",""
"","","","","","image-keyboard-response","247","2.0.0","250880","pq975lypb5a","squirrel","null","stimuli/street_32.jpg","null","street","A","non-repeat","null","213","stimuli/street_32.jpg","","","","",""
"","","","","","image-keyboard-response","248","2.0.0","251883","pq975lypb5a","squirrel","null","stimuli/coast_23.jpg","null","coast","B","non-repeat","null","214","stimuli/coast_23.jpg","","","","",""
"","","","","","image-keyboard-response","249","2.0.0","252887","pq975lypb5a","squirrel","null","stimuli/bar_56.jpg","null","bar","C","non-repeat","null","215","stimuli/bar_56.jpg","","","","",""
"","","","","","image-keyboard-response","250","2.0.0","253891","pq975lypb5a","squirrel","null","stimuli/field_37.jpg","null","field","J","non-repeat","null","216","stimuli/field_37.jpg","","","","",""
"","","","","","image-keyboard-response","251","2.0.0","254895","pq975lypb5a","squirrel","null","stimuli/field_37.jpg","null","field","J","repeat"," ","216","","","","","",""
"","","","","","image-keyboard-response","252","2.0.0","255898","pq975lypb5a","squirrel","null","stimuli/kitchen_60.jpg","null","kitchen","K","non-repeat","null","217","stimuli/kitchen_60.jpg","","","","",""
"","","","","","image-keyboard-response","253","2.0.0","256902","pq975lypb5a","squirrel","null","stimuli/playground_26.jpg","null","playground","L","non-repeat","null","218","stimuli/playground_26.jpg","","","","",""
"","","","","","image-keyboard-response","254","2.0.0","257905","pq975lypb5a","squirrel","null","stimuli/gym_33.jpg","null","gym","G","non-repeat","null","219","stimuli/gym_33.jpg","","","","",""
"","","","","","image-keyboard-response","255","2.0.0","258909","pq975lypb5a","squirrel","null","stimuli/desert_36.jpg","null","desert","H","non-repeat","null","220","stimuli/desert_36.jpg","","","","",""
"","","","","","image-keyboard-response","256","2.0.0","259913","pq975lypb5a","squirrel","null","stimuli/stream_29.jpg","null","stream","I","non-repeat","null","221","stimuli/stream_29.jpg","","","","",""
"","","","","","image-keyboard-response","257","2.0.0","260917","pq975lypb5a","squirrel","437","stimuli/stream_29.jpg"," ","stream","I","repeat"," ","221","","","","","",""
"","","","","","image-keyboard-response","258","2.0.0","261921","pq975lypb5a","squirrel","null","stimuli/bridge_13.jpg","null","bridge","D","non-repeat","null","222","stimuli/bridge_13.jpg","","","","",""
"","","","","","image-keyboard-response","259","2.0.0","262925","pq975lypb5a","squirrel","519","stimuli/bridge_13.jpg"," ","bridge","D","repeat"," ","222","","","","","",""
"","","","","","image-keyboard-response","260","2.0.0","263929","pq975lypb5a","squirrel","null","stimuli/bathroom_28.jpg","null","bathroom","E","non-repeat","null","223","stimuli/bathroom_28.jpg","","","","",""
"","","","","","image-keyboard-response","261","2.0.0","264933","pq975lypb5a","squirrel","null","stimuli/woods_26.jpg","null","woods","F","non-repeat","null","224","stimuli/woods_26.jpg","","","","",""
"","","","","","image-keyboard-response","262","2.0.0","265937","pq975lypb5a","squirrel","null","stimuli/field_37.jpg","null","field","J","non-repeat","null","225","stimuli/field_37.jpg","","","","",""
"","","","","","image-keyboard-response","263","2.0.0","266941","pq975lypb5a","squirrel","null","stimuli/kitchen_60.jpg","null","kitchen","K","non-repeat","null","226","stimuli/kitchen_60.jpg","","","","",""
"","","","","","image-keyboard-response","264","2.0.0","267945","pq975lypb5a","squirrel","null","stimuli/playground_26.jpg","null","playground","L","non-repeat","null","227","stimuli/playground_26.jpg","","","","",""
"","","","","","image-keyboard-response","265","2.0.0","268948","pq975lypb5a","squirrel","null","stimuli/gym_33.jpg","null","gym","G","non-repeat","null","228","stimuli/gym_33.jpg","","","","",""
"","","","","","image-keyboard-response","266","2.0.0","269952","pq975lypb5a","squirrel","null","stimuli/desert_36.jpg","null","desert","H","non-repeat","null","229","stimuli/desert_36.jpg","","","","",""
"","","","","","image-keyboard-response","267","2.0.0","270957","pq975lypb5a","squirrel","null","stimuli/stream_29.jpg","null","stream","I","non-repeat","null","230","stimuli/stream_29.jpg","","","","",""
"","","","","","image-keyboard-response","268","2.0.0","271961","pq975lypb5a","squirrel","null","stimuli/street_32.jpg","null","street","A","non-repeat","null","231","stimuli/street_32.jpg","","","","",""
"","","","","","image-keyboard-response","269","2.0.0","272965","pq975lypb5a","squirrel","null","stimuli/coast_23.jpg","null","coast","B","non-repeat","null","232","stimuli/coast_23.jpg","","","","",""
"","","","","","image-keyboard-response","270","2.0.0","273968","pq975lypb5a","squirrel","null","stimuli/bar_56.jpg","null","bar","C","non-repeat","null","233","stimuli/bar_56.jpg","","","","",""
"","","","","","image-keyboard-response","271","2.0.0","274972","pq975lypb5a","squirrel","null","stimuli/bridge_13.jpg","null","bridge","D","non-repeat","null","234","stimuli/bridge_13.jpg","","","","",""
"","","","","","image-keyboard-response","272","2.0.0","275976","pq975lypb5a","squirrel","null","stimuli/bathroom_28.jpg","null","bathroom","E","non-repeat","null","235","stimuli/bathroom_28.jpg","","","","",""
"","","","","","image-keyboard-response","273","2.0.0","276979","pq975lypb5a","squirrel","null","stimuli/woods_26.jpg","null","woods","F","non-repeat","null","236","stimuli/woods_26.jpg","","","","",""
"","","","","","image-keyboard-response","274","2.0.0","277982","pq975lypb5a","squirrel","534","stimuli/field_37.jpg"," ","field","J","non-repeat","null","237","stimuli/field_37.jpg","","","","",""
"","","","","","image-keyboard-response","275","2.0.0","278986","pq975lypb5a","squirrel","null","stimuli/kitchen_60.jpg","null","kitchen","K","non-repeat","null","238","stimuli/kitchen_60.jpg","","","","",""
"","","","","","image-keyboard-response","276","2.0.0","279989","pq975lypb5a","squirrel","null","stimuli/playground_26.jpg","null","playground","L","non-repeat","null","239","stimuli/playground_26.jpg","","","","",""
"","","","","","image-keyboard-response","277","2.0.0","280991","pq975lypb5a","squirrel","null","stimuli/bridge_13.jpg","null","bridge","D","non-repeat","null","240","stimuli/bridge_13.jpg","","","","",""
"","","","","","image-keyboard-response","278","2.0.0","281995","pq975lypb5a","squirrel","null","stimuli/bathroom_28.jpg","null","bathroom","E","non-repeat","null","241","stimuli/bathroom_28.jpg","","","","",""
"","","","","","image-keyboard-response","279","2.0.0","282999","pq975lypb5a","squirrel","null","stimuli/woods_26.jpg","null","woods","F","non-repeat","null","242","stimuli/woods_26.jpg","","","","",""
"","","","","","image-keyboard-response","280","2.0.0","284003","pq975lypb5a","squirrel","null","stimuli/street_32.jpg","null","street","A","non-repeat","null","243","stimuli/street_32.jpg","","","","",""
"","","","","","image-keyboard-response","281","2.0.0","285007","pq975lypb5a","squirrel","null","stimuli/coast_23.jpg","null","coast","B","non-repeat","null","244","stimuli/coast_23.jpg","","","","",""
"","","","","","image-keyboard-response","282","2.0.0","286010","pq975lypb5a","squirrel","null","stimuli/bar_56.jpg","null","bar","C","non-repeat","null","245","stimuli/bar_56.jpg","","","","",""
"","","","","","image-keyboard-response","283","2.0.0","287013","pq975lypb5a","squirrel","null","stimuli/field_37.jpg","null","field","J","non-repeat","null","246","stimuli/field_37.jpg","","","","",""
"","","","","","image-keyboard-response","284","2.0.0","288016","pq975lypb5a","squirrel","410","stimuli/field_37.jpg"," ","field","J","repeat"," ","246","","","","","",""
"","","","","","image-keyboard-response","285","2.0.0","289020","pq975lypb5a","squirrel","null","stimuli/kitchen_60.jpg","null","kitchen","K","non-repeat","null","247","stimuli/kitchen_60.jpg","","","","",""
"","","","","","image-keyboard-response","286","2.0.0","290024","pq975lypb5a","squirrel","null","stimuli/playground_26.jpg","null","playground","L","non-repeat","null","248","stimuli/playground_26.jpg","","","","",""
"","","","","","image-keyboard-response","287","2.0.0","291028","pq975lypb5a","squirrel","null","stimuli/street_32.jpg","null","street","A","non-repeat","null","249","stimuli/street_32.jpg","","","","",""
"","","","","","image-keyboard-response","288","2.0.0","292032","pq975lypb5a","squirrel","null","stimuli/coast_23.jpg","null","coast","B","non-repeat","null","250","stimuli/coast_23.jpg","","","","",""
"","","","","","image-keyboard-response","289","2.0.0","293036","pq975lypb5a","squirrel","null","stimuli/bar_56.jpg","null","bar","C","non-repeat","null","251","stimuli/bar_56.jpg","","","","",""
"","","","","","image-keyboard-response","290","2.0.0","294040","pq975lypb5a","squirrel","null","stimuli/bridge_13.jpg","null","bridge","D","non-repeat","null","252","stimuli/bridge_13.jpg","","","","",""
"","","","","","image-keyboard-response","291","2.0.0","295043","pq975lypb5a","squirrel","null","stimuli/bathroom_28.jpg","null","bathroom","E","non-repeat","null","253","stimuli/bathroom_28.jpg","","","","",""
"","","","","","image-keyboard-response","292","2.0.0","296048","pq975lypb5a","squirrel","null","stimuli/woods_26.jpg","null","woods","F","non-repeat","null","254","stimuli/woods_26.jpg","","","","",""
"","","","","","image-keyboard-response","293","2.0.0","297051","pq975lypb5a","squirrel","534","stimuli/woods_26.jpg"," ","woods","F","repeat"," ","254","","","","","",""
"","","","","","image-keyboard-response","294","2.0.0","298054","pq975lypb5a","squirrel","null","stimuli/gym_33.jpg","null","gym","G","non-repeat","null","255","stimuli/gym_33.jpg","","","","",""
"","","","","","image-keyboard-response","295","2.0.0","299058","pq975lypb5a","squirrel","692","stimuli/gym_33.jpg"," ","gym","G","repeat"," ","255","","","","","",""
"","","","","","image-keyboard-response","296","2.0.0","300062","pq975lypb5a","squirrel","null","stimuli/desert_36.jpg","null","desert","H","non-repeat","null","256","stimuli/desert_36.jpg","","","","",""
"","","","","","image-keyboard-response","297","2.0.0","301066","pq975lypb5a","squirrel","null","stimuli/stream_29.jpg","null","stream","I","non-repeat","null","257","stimuli/stream_29.jpg","","","","",""
"","","","","","image-keyboard-response","298","2.0.0","302069","pq975lypb5a","squirrel","null","stimuli/street_32.jpg","null","street","A","non-repeat","null","258","stimuli/street_32.jpg","","","","",""
"","","","","","image-keyboard-response","299","2.0.0","303073","pq975lypb5a","squirrel","null","stimuli/street_32.jpg","null","street","A","repeat"," ","258","","","","","",""
"","","","","","image-keyboard-response","300","2.0.0","304077","pq975lypb5a","squirrel","null","stimuli/coast_23.jpg","null","coast","B","non-repeat","null","259","stimuli/coast_23.jpg","","","","",""
"","","","","","image-keyboard-response","301","2.0.0","305084","pq975lypb5a","squirrel","null","stimuli/bar_56.jpg","null","bar","C","non-repeat","null","260","stimuli/bar_56.jpg","","","","",""
"","","","","","image-keyboard-response","302","2.0.0","306087","pq975lypb5a","squirrel","null","stimuli/bridge_13.jpg","null","bridge","D","non-repeat","null","261","stimuli/bridge_13.jpg","","","","",""
"","","","","","image-keyboard-response","303","2.0.0","307091","pq975lypb5a","squirrel","null","stimuli/bathroom_28.jpg","null","bathroom","E","non-repeat","null","262","stimuli/bathroom_28.jpg","","","","",""
"","","","","","image-keyboard-response","304","2.0.0","308094","pq975lypb5a","squirrel","null","stimuli/woods_26.jpg","null","woods","F","non-repeat","null","263","stimuli/woods_26.jpg","","","","",""
"","","","","","image-keyboard-response","305","2.0.0","309098","pq975lypb5a","squirrel","null","stimuli/gym_33.jpg","null","gym","G","non-repeat","null","264","stimuli/gym_33.jpg","","","","",""
"","","","","","image-keyboard-response","306","2.0.0","310102","pq975lypb5a","squirrel","null","stimuli/desert_36.jpg","null","desert","H","non-repeat","null","265","stimuli/desert_36.jpg","","","","",""
"","","","","","image-keyboard-response","307","2.0.0","311105","pq975lypb5a","squirrel","null","stimuli/stream_29.jpg","null","stream","I","non-repeat","null","266","stimuli/stream_29.jpg","","","","",""
"","","","","","image-keyboard-response","308","2.0.0","312109","pq975lypb5a","squirrel","null","stimuli/field_37.jpg","null","field","J","non-repeat","null","267","stimuli/field_37.jpg","","","","",""
"","","","","","image-keyboard-response","309","2.0.0","313112","pq975lypb5a","squirrel","null","stimuli/kitchen_60.jpg","null","kitchen","K","non-repeat","null","268","stimuli/kitchen_60.jpg","","","","",""
"","","","","","image-keyboard-response","310","2.0.0","314116","pq975lypb5a","squirrel","null","stimuli/playground_26.jpg","null","playground","L","non-repeat","null","269","stimuli/playground_26.jpg","","","","",""
"","","","","","image-keyboard-response","311","2.0.0","315119","pq975lypb5a","squirrel","null","stimuli/bridge_13.jpg","null","bridge","D","non-repeat","null","270","stimuli/bridge_13.jpg","","","","",""
"","","","","","image-keyboard-response","312","2.0.0","316124","pq975lypb5a","squirrel","null","stimuli/bathroom_28.jpg","null","bathroom","E","non-repeat","null","271","stimuli/bathroom_28.jpg","","","","",""
"","","","","","image-keyboard-response","313","2.0.0","317127","pq975lypb5a","squirrel","null","stimuli/woods_26.jpg","null","woods","F","non-repeat","null","272","stimuli/woods_26.jpg","","","","",""
"","","","","","image-keyboard-response","314","2.0.0","318132","pq975lypb5a","squirrel","null","stimuli/field_37.jpg","null","field","J","non-repeat","null","273","stimuli/field_37.jpg","","","","",""
"","","","","","image-keyboard-response","315","2.0.0","319135","pq975lypb5a","squirrel","null","stimuli/kitchen_60.jpg","null","kitchen","K","non-repeat","null","274","stimuli/kitchen_60.jpg","","","","",""
"","","","","","image-keyboard-response","316","2.0.0","320139","pq975lypb5a","squirrel","null","stimuli/playground_26.jpg","null","playground","L","non-repeat","null","275","stimuli/playground_26.jpg","","","","",""
"","","","","","image-keyboard-response","317","2.0.0","321142","pq975lypb5a","squirrel","null","stimuli/gym_33.jpg","null","gym","G","non-repeat","null","276","stimuli/gym_33.jpg","","","","",""
"","","","","","image-keyboard-response","318","2.0.0","322145","pq975lypb5a","squirrel","null","stimuli/desert_36.jpg","null","desert","H","non-repeat","null","277","stimuli/desert_36.jpg","","","","",""
"","","","","","image-keyboard-response","319","2.0.0","323149","pq975lypb5a","squirrel","null","stimuli/stream_29.jpg","null","stream","I","non-repeat","null","278","stimuli/stream_29.jpg","","","","",""
"","","","","","image-keyboard-response","320","2.0.0","324153","pq975lypb5a","squirrel","null","stimuli/field_37.jpg","null","field","J","non-repeat","null","279","stimuli/field_37.jpg","","","","",""
"","","","","","image-keyboard-response","321","2.0.0","325157","pq975lypb5a","squirrel","518","stimuli/field_37.jpg"," ","field","J","repeat"," ","279","","","","","",""
"","","","","","image-keyboard-response","322","2.0.0","326161","pq975lypb5a","squirrel","null","stimuli/kitchen_60.jpg","null","kitchen","K","non-repeat","null","280","stimuli/kitchen_60.jpg","","","","",""
"","","","","","image-keyboard-response","323","2.0.0","327165","pq975lypb5a","squirrel","null","stimuli/playground_26.jpg","null","playground","L","non-repeat","null","281","stimuli/playground_26.jpg","","","","",""
"","","","","","image-keyboard-response","324","2.0.0","328167","pq975lypb5a","squirrel","null","stimuli/bridge_13.jpg","null","bridge","D","non-repeat","null","282","stimuli/bridge_13.jpg","","","","",""
"","","","","","image-keyboard-response","325","2.0.0","329171","pq975lypb5a","squirrel","null","stimuli/bathroom_28.jpg","null","bathroom","E","non-repeat","null","283","stimuli/bathroom_28.jpg","","","","",""
"","","","","","image-keyboard-response","326","2.0.0","330175","pq975lypb5a","squirrel","null","stimuli/woods_26.jpg","null","woods","F","non-repeat","null","284","stimuli/woods_26.jpg","","","","",""
"","","","","","image-keyboard-response","327","2.0.0","331178","pq975lypb5a","squirrel","null","stimuli/street_32.jpg","null","street","A","non-repeat","null","285","stimuli/street_32.jpg","","","","",""
"","","","","","image-keyboard-response","328","2.0.0","332181","pq975lypb5a","squirrel","725","stimuli/street_32.jpg"," ","street","A","repeat"," ","285","","","","","",""
"","","","","","image-keyboard-response","329","2.0.0","333185","pq975lypb5a","squirrel","null","stimuli/coast_23.jpg","null","coast","B","non-repeat","null","286","stimuli/coast_23.jpg","","","","",""
"","","","","","image-keyboard-response","330","2.0.0","334188","pq975lypb5a","squirrel","null","stimuli/bar_56.jpg","null","bar","C","non-repeat","null","287","stimuli/bar_56.jpg","","","","",""
"","","","","","image-keyboard-response","331","2.0.0","335192","pq975lypb5a","squirrel","null","stimuli/field_37.jpg","null","field","J","non-repeat","null","288","stimuli/field_37.jpg","","","","",""
"","","","","","image-keyboard-response","332","2.0.0","336196","pq975lypb5a","squirrel","null","stimuli/kitchen_60.jpg","null","kitchen","K","non-repeat","null","289","stimuli/kitchen_60.jpg","","","","",""
"","","","","","image-keyboard-response","333","2.0.0","337199","pq975lypb5a","squirrel","null","stimuli/playground_26.jpg","null","playground","L","non-repeat","null","290","stimuli/playground_26.jpg","","","","",""
"","","","","","image-keyboard-response","334","2.0.0","338203","pq975lypb5a","squirrel","null","stimuli/street_32.jpg","null","street","A","non-repeat","null","291","stimuli/street_32.jpg","","","","",""
"","","","","","image-keyboard-response","335","2.0.0","339207","pq975lypb5a","squirrel","407","stimuli/street_32.jpg"," ","street","A","repeat"," ","291","","","","","",""
"","","","","","image-keyboard-response","336","2.0.0","340210","pq975lypb5a","squirrel","null","stimuli/coast_23.jpg","null","coast","B","non-repeat","null","292","stimuli/coast_23.jpg","","","","",""
"","","","","","image-keyboard-response","337","2.0.0","341213","pq975lypb5a","squirrel","null","stimuli/bar_56.jpg","null","bar","C","non-repeat","null","293","stimuli/bar_56.jpg","","","","",""
"","","","","","image-keyboard-response","338","2.0.0","342216","pq975lypb5a","squirrel","432","stimuli/bar_56.jpg"," ","bar","C","repeat"," ","293","","","","","",""
"","","","","","image-keyboard-response","339","2.0.0","343220","pq975lypb5a","squirrel","null","stimuli/gym_33.jpg","null","gym","G","non-repeat","null","294","stimuli/gym_33.jpg","","","","",""
"","","","","","image-keyboard-response","340","2.0.0","344224","pq975lypb5a","squirrel","null","stimuli/desert_36.jpg","null","desert","H","non-repeat","null","295","stimuli/desert_36.jpg","","","","",""
"","","","","","image-keyboard-response","341","2.0.0","345227","pq975lypb5a","squirrel","null","stimuli/stream_29.jpg","null","stream","I","non-repeat","null","296","stimuli/stream_29.jpg","","","","",""
"","","","","","image-keyboard-response","342","2.0.0","346230","pq975lypb5a","squirrel","null","stimuli/stream_29.jpg","null","stream","I","repeat"," ","296","","","","","",""
"","","","","","image-keyboard-response","343","2.0.0","347233","pq975lypb5a","squirrel","null","stimuli/field_37.jpg","null","field","J","non-repeat","null","297","stimuli/field_37.jpg","","","","",""
"","","","","","image-keyboard-response","344","2.0.0","348236","pq975lypb5a","squirrel","null","stimuli/kitchen_60.jpg","null","kitchen","K","non-repeat","null","298","stimuli/kitchen_60.jpg","","","","",""
"","","","","","image-keyboard-response","345","2.0.0","349240","pq975lypb5a","squirrel","null","stimuli/playground_26.jpg","null","playground","L","non-repeat","null","299","stimuli/playground_26.jpg","","","","",""
"","","","","","image-keyboard-response","346","2.0.0","350244","pq975lypb5a","squirrel","525","stimuli/playground_26.jpg"," ","playground","L","repeat"," ","299","","","","","",""
"","","","","","image-keyboard-response","347","2.0.0","351247","pq975lypb5a","squirrel","null","stimuli/bridge_13.jpg","null","bridge","D","non-repeat","null","300","stimuli/bridge_13.jpg","","","","",""
"","","","","","image-keyboard-response","348","2.0.0","352251","pq975lypb5a","squirrel","null","stimuli/bathroom_28.jpg","null","bathroom","E","non-repeat","null","301","stimuli/bathroom_28.jpg","","","","",""
"","","","","","image-keyboard-response","349","2.0.0","353255","pq975lypb5a","squirrel","null","stimuli/woods_26.jpg","null","woods","F","non-repeat","null","302","stimuli/woods_26.jpg","","","","",""
"","","","","","image-keyboard-response","350","2.0.0","354259","pq975lypb5a","squirrel","null","stimuli/gym_33.jpg","null","gym","G","non-repeat","null","303","stimuli/gym_33.jpg","","","","",""
"","","","","","image-keyboard-response","351","2.0.0","355262","pq975lypb5a","squirrel","null","stimuli/desert_36.jpg","null","desert","H","non-repeat","null","304","stimuli/desert_36.jpg","","","","",""
"","","","","","image-keyboard-response","352","2.0.0","356266","pq975lypb5a","squirrel","null","stimuli/stream_29.jpg","null","stream","I","non-repeat","null","305","stimuli/stream_29.jpg","","","","",""
"","","","","","image-keyboard-response","353","2.0.0","357271","pq975lypb5a","squirrel","null","stimuli/street_32.jpg","null","street","A","non-repeat","null","306","stimuli/street_32.jpg","","","","",""
"","","","","","image-keyboard-response","354","2.0.0","358275","pq975lypb5a","squirrel","null","stimuli/coast_23.jpg","null","coast","B","non-repeat","null","307","stimuli/coast_23.jpg","","","","",""
"","","","","","image-keyboard-response","355","2.0.0","359278","pq975lypb5a","squirrel","null","stimuli/bar_56.jpg","null","bar","C","non-repeat","null","308","stimuli/bar_56.jpg","","","","",""
"","","","","","image-keyboard-response","356","2.0.0","360283","pq975lypb5a","squirrel","null","stimuli/bridge_13.jpg","null","bridge","D","non-repeat","null","309","stimuli/bridge_13.jpg","","","","",""
"","","","","","image-keyboard-response","357","2.0.0","361287","pq975lypb5a","squirrel","null","stimuli/bathroom_28.jpg","null","bathroom","E","non-repeat","null","310","stimuli/bathroom_28.jpg","","","","",""
"","","","","","image-keyboard-response","358","2.0.0","362290","pq975lypb5a","squirrel","null","stimuli/woods_26.jpg","null","woods","F","non-repeat","null","311","stimuli/woods_26.jpg","","","","",""
"","","","","","image-keyboard-response","359","2.0.0","363294","pq975lypb5a","squirrel","null","stimuli/field_37.jpg","null","field","J","non-repeat","null","312","stimuli/field_37.jpg","","","","",""
"","","","","","image-keyboard-response","360","2.0.0","364297","pq975lypb5a","squirrel","null","stimuli/kitchen_60.jpg","null","kitchen","K","non-repeat","null","313","stimuli/kitchen_60.jpg","","","","",""
"","","","","","image-keyboard-response","361","2.0.0","365300","pq975lypb5a","squirrel","null","stimuli/playground_26.jpg","null","playground","L","non-repeat","null","314","stimuli/playground_26.jpg","","","","",""
"","","","","","image-keyboard-response","362","2.0.0","366303","pq975lypb5a","squirrel","null","stimuli/street_32.jpg","null","street","A","non-repeat","null","315","stimuli/street_32.jpg","","","","",""
"","","","","","image-keyboard-response","363","2.0.0","367306","pq975lypb5a","squirrel","null","stimuli/coast_23.jpg","null","coast","B","non-repeat","null","316","stimuli/coast_23.jpg","","","","",""
"","","","","","image-keyboard-response","364","2.0.0","368310","pq975lypb5a","squirrel","null","stimuli/bar_56.jpg","null","bar","C","non-repeat","null","317","stimuli/bar_56.jpg","","","","",""
"","","","","","image-keyboard-response","365","2.0.0","369314","pq975lypb5a","squirrel","null","stimuli/bridge_13.jpg","null","bridge","D","non-repeat","null","318","stimuli/bridge_13.jpg","","","","",""
"","","","","","image-keyboard-response","366","2.0.0","370318","pq975lypb5a","squirrel","null","stimuli/bathroom_28.jpg","null","bathroom","E","non-repeat","null","319","stimuli/bathroom_28.jpg","","","","",""
"","","","","","image-keyboard-response","367","2.0.0","371322","pq975lypb5a","squirrel","null","stimuli/woods_26.jpg","null","woods","F","non-repeat","null","320","stimuli/woods_26.jpg","","","","",""
"","","","","","image-keyboard-response","368","2.0.0","372326","pq975lypb5a","squirrel","null","stimuli/street_32.jpg","null","street","A","non-repeat","null","321","stimuli/street_32.jpg","","","","",""
"","","","","","image-keyboard-response","369","2.0.0","373330","pq975lypb5a","squirrel","451","stimuli/street_32.jpg"," ","street","A","repeat"," ","321","","","","","",""
"","","","","","image-keyboard-response","370","2.0.0","374334","pq975lypb5a","squirrel","null","stimuli/coast_23.jpg","null","coast","B","non-repeat","null","322","stimuli/coast_23.jpg","","","","",""
"","","","","","image-keyboard-response","371","2.0.0","375338","pq975lypb5a","squirrel","null","stimuli/bar_56.jpg","null","bar","C","non-repeat","null","323","stimuli/bar_56.jpg","","","","",""
"","","","","","image-keyboard-response","372","2.0.0","376342","pq975lypb5a","squirrel","null","stimuli/gym_33.jpg","null","gym","G","non-repeat","null","324","stimuli/gym_33.jpg","","","","",""
"","","","","","image-keyboard-response","373","2.0.0","377345","pq975lypb5a","squirrel","null","stimuli/desert_36.jpg","null","desert","H","non-repeat","null","325","stimuli/desert_36.jpg","","","","",""
"","","","","","image-keyboard-response","374","2.0.0","378348","pq975lypb5a","squirrel","null","stimuli/stream_29.jpg","null","stream","I","non-repeat","null","326","stimuli/stream_29.jpg","","","","",""
"","","","","","image-keyboard-response","375","2.0.0","379351","pq975lypb5a","squirrel","null","stimuli/field_37.jpg","null","field","J","non-repeat","null","327","stimuli/field_37.jpg","","","","",""
"","","","","","image-keyboard-response","376","2.0.0","380355","pq975lypb5a","squirrel","null","stimuli/kitchen_60.jpg","null","kitchen","K","non-repeat","null","328","stimuli/kitchen_60.jpg","","","","",""
"","","","","","image-keyboard-response","377","2.0.0","381358","pq975lypb5a","squirrel","null","stimuli/playground_26.jpg","null","playground","L","non-repeat","null","329","stimuli/playground_26.jpg","","","","",""
"","","","","","image-keyboard-response","378","2.0.0","382361","pq975lypb5a","squirrel","null","stimuli/bridge_13.jpg","null","bridge","D","non-repeat","null","330","stimuli/bridge_13.jpg","","","","",""
"","","","","","image-keyboard-response","379","2.0.0","383363","pq975lypb5a","squirrel","null","stimuli/bathroom_28.jpg","null","bathroom","E","non-repeat","null","331","stimuli/bathroom_28.jpg","","","","",""
"","","","","","image-keyboard-response","380","2.0.0","384365","pq975lypb5a","squirrel","null","stimuli/woods_26.jpg","null","woods","F","non-repeat","null","332","stimuli/woods_26.jpg","","","","",""
"","","","","","image-keyboard-response","381","2.0.0","385367","pq975lypb5a","squirrel","null","stimuli/field_37.jpg","null","field","J","non-repeat","null","333","stimuli/field_37.jpg","","","","",""
"","","","","","image-keyboard-response","382","2.0.0","386371","pq975lypb5a","squirrel","609","stimuli/field_37.jpg"," ","field","J","repeat"," ","333","","","","","",""
"","","","","","image-keyboard-response","383","2.0.0","387374","pq975lypb5a","squirrel","null","stimuli/kitchen_60.jpg","null","kitchen","K","non-repeat","null","334","stimuli/kitchen_60.jpg","","","","",""
"","","","","","image-keyboard-response","384","2.0.0","388378","pq975lypb5a","squirrel","null","stimuli/playground_26.jpg","null","playground","L","non-repeat","null","335","stimuli/playground_26.jpg","","","","",""
"","","","","","image-keyboard-response","385","2.0.0","389382","pq975lypb5a","squirrel","null","stimuli/bridge_13.jpg","null","bridge","D","non-repeat","null","336","stimuli/bridge_13.jpg","","","","",""
"","","","","","image-keyboard-response","386","2.0.0","390385","pq975lypb5a","squirrel","null","stimuli/bridge_13.jpg","null","bridge","D","repeat"," ","336","","","","","",""
"","","","","","image-keyboard-response","387","2.0.0","391389","pq975lypb5a","squirrel","null","stimuli/bathroom_28.jpg","null","bathroom","E","non-repeat","null","337","stimuli/bathroom_28.jpg","","","","",""
"","","","","","image-keyboard-response","388","2.0.0","392393","pq975lypb5a","squirrel","null","stimuli/woods_26.jpg","null","woods","F","non-repeat","null","338","stimuli/woods_26.jpg","","","","",""
"","","","","","image-keyboard-response","389","2.0.0","393397","pq975lypb5a","squirrel","495","stimuli/field_37.jpg"," ","field","J","non-repeat","null","339","stimuli/field_37.jpg","","","","",""
"","","","","","image-keyboard-response","390","2.0.0","394401","pq975lypb5a","squirrel","null","stimuli/kitchen_60.jpg","null","kitchen","K","non-repeat","null","340","stimuli/kitchen_60.jpg","","","","",""
"","","","","","image-keyboard-response","391","2.0.0","395405","pq975lypb5a","squirrel","null","stimuli/playground_26.jpg","null","playground","L","non-repeat","null","341","stimuli/playground_26.jpg","","","","",""
"","","","","","image-keyboard-response","392","2.0.0","396410","pq975lypb5a","squirrel","582","stimuli/playground_26.jpg"," ","playground","L","repeat"," ","341","","","","","",""
"","","","","","image-keyboard-response","393","2.0.0","397413","pq975lypb5a","squirrel","null","stimuli/gym_33.jpg","null","gym","G","non-repeat","null","342","stimuli/gym_33.jpg","","","","",""
"","","","","","image-keyboard-response","394","2.0.0","398416","pq975lypb5a","squirrel","null","stimuli/desert_36.jpg","null","desert","H","non-repeat","null","343","stimuli/desert_36.jpg","","","","",""
"","","","","","image-keyboard-response","395","2.0.0","399420","pq975lypb5a","squirrel","null","stimuli/stream_29.jpg","null","stream","I","non-repeat","null","344","stimuli/stream_29.jpg","","","","",""
"","","","","","image-keyboard-response","396","2.0.0","400424","pq975lypb5a","squirrel","521","stimuli/stream_29.jpg"," ","stream","I","repeat"," ","344","","","","","",""
"","","","","","image-keyboard-response","397","2.0.0","401428","pq975lypb5a","squirrel","null","stimuli/street_32.jpg","null","street","A","non-repeat","null","345","stimuli/street_32.jpg","","","","",""
"","","","","","image-keyboard-response","398","2.0.0","402431","pq975lypb5a","squirrel","null","stimuli/coast_23.jpg","null","coast","B","non-repeat","null","346","stimuli/coast_23.jpg","","","","",""
"","","","","","image-keyboard-response","399","2.0.0","403435","pq975lypb5a","squirrel","null","stimuli/bar_56.jpg","null","bar","C","non-repeat","null","347","stimuli/bar_56.jpg","","","","",""
"","","","","","image-keyboard-response","400","2.0.0","404439","pq975lypb5a","squirrel","null","stimuli/gym_33.jpg","null","gym","G","non-repeat","null","348","stimuli/gym_33.jpg","","","","",""
"","","","","","image-keyboard-response","401","2.0.0","405443","pq975lypb5a","squirrel","null","stimuli/desert_36.jpg","null","desert","H","non-repeat","null","349","stimuli/desert_36.jpg","","","","",""
"","","","","","image-keyboard-response","402","2.0.0","406447","pq975lypb5a","squirrel","null","stimuli/stream_29.jpg","null","stream","I","non-repeat","null","350","stimuli/stream_29.jpg","","","","",""
"","","","","","image-keyboard-response","403","2.0.0","407450","pq975lypb5a","squirrel","null","stimuli/bridge_13.jpg","null","bridge","D","non-repeat","null","351","stimuli/bridge_13.jpg","","","","",""
"","","","","","image-keyboard-response","404","2.0.0","408454","pq975lypb5a","squirrel","null","stimuli/bathroom_28.jpg","null","bathroom","E","non-repeat","null","352","stimuli/bathroom_28.jpg","","","","",""
"","","","","","image-keyboard-response","405","2.0.0","409457","pq975lypb5a","squirrel","null","stimuli/woods_26.jpg","null","woods","F","non-repeat","null","353","stimuli/woods_26.jpg","","","","",""
"","","","","","image-keyboard-response","406","2.0.0","410460","pq975lypb5a","squirrel","null","stimuli/woods_26.jpg","null","woods","F","repeat"," ","353","","","","","",""
"","","","","","image-keyboard-response","407","2.0.0","411463","pq975lypb5a","squirrel","null","stimuli/street_32.jpg","null","street","A","non-repeat","null","354","stimuli/street_32.jpg","","","","",""
"","","","","","image-keyboard-response","408","2.0.0","412468","pq975lypb5a","squirrel","null","stimuli/coast_23.jpg","null","coast","B","non-repeat","null","355","stimuli/coast_23.jpg","","","","",""
"","","","","","image-keyboard-response","409","2.0.0","413472","pq975lypb5a","squirrel","null","stimuli/bar_56.jpg","null","bar","C","non-repeat","null","356","stimuli/bar_56.jpg","","","","",""
"","","","","","image-keyboard-response","410","2.0.0","414476","pq975lypb5a","squirrel","408","stimuli/gym_33.jpg"," ","gym","G","non-repeat","null","357","stimuli/gym_33.jpg","","","","",""
"","","","","","image-keyboard-response","411","2.0.0","415480","pq975lypb5a","squirrel","null","stimuli/desert_36.jpg","null","desert","H","non-repeat","null","358","stimuli/desert_36.jpg","","","","",""
"","","","","","image-keyboard-response","412","2.0.0","416483","pq975lypb5a","squirrel","null","stimuli/stream_29.jpg","null","stream","I","non-repeat","null","359","stimuli/stream_29.jpg","","","","",""
"","","","","","image-keyboard-response","413","2.0.0","417487","pq975lypb5a","squirrel","387","stimuli/stream_29.jpg"," ","stream","I","repeat"," ","359","","","","","",""
"","","","","","image-keyboard-response","414","2.0.0","418492","pq975lypb5a","squirrel","null","stimuli/bridge_13.jpg","null","bridge","D","non-repeat","null","360","stimuli/bridge_13.jpg","","","","",""
"","","","","","image-keyboard-response","415","2.0.0","419495","pq975lypb5a","squirrel","null","stimuli/bathroom_28.jpg","null","bathroom","E","non-repeat","null","361","stimuli/bathroom_28.jpg","","","","",""
"","","","","","image-keyboard-response","416","2.0.0","420499","pq975lypb5a","squirrel","null","stimuli/woods_26.jpg","null","woods","F","non-repeat","null","362","stimuli/woods_26.jpg","","","","",""
"","","","","","image-keyboard-response","417","2.0.0","421503","pq975lypb5a","squirrel","null","stimuli/street_32.jpg","null","street","A","non-repeat","null","363","stimuli/street_32.jpg","","","","",""
"","","","","","image-keyboard-response","418","2.0.0","422507","pq975lypb5a","squirrel","null","stimuli/coast_23.jpg","null","coast","B","non-repeat","null","364","stimuli/coast_23.jpg","","","","",""
"","","","","","image-keyboard-response","419","2.0.0","423511","pq975lypb5a","squirrel","null","stimuli/bar_56.jpg","null","bar","C","non-repeat","null","365","stimuli/bar_56.jpg","","","","",""
"","","","","","image-keyboard-response","420","2.0.0","424515","pq975lypb5a","squirrel","null","stimuli/gym_33.jpg","null","gym","G","non-repeat","null","366","stimuli/gym_33.jpg","","","","",""
"","","","","","image-keyboard-response","421","2.0.0","425519","pq975lypb5a","squirrel","null","stimuli/desert_36.jpg","null","desert","H","non-repeat","null","367","stimuli/desert_36.jpg","","","","",""
"","","","","","image-keyboard-response","422","2.0.0","426522","pq975lypb5a","squirrel","null","stimuli/stream_29.jpg","null","stream","I","non-repeat","null","368","stimuli/stream_29.jpg","","","","",""
"","","","","","image-keyboard-response","423","2.0.0","427526","pq975lypb5a","squirrel","364","stimuli/stream_29.jpg"," ","stream","I","repeat"," ","368","","","","","",""
"","","","","","image-keyboard-response","424","2.0.0","428530","pq975lypb5a","squirrel","null","stimuli/street_32.jpg","null","street","A","non-repeat","null","369","stimuli/street_32.jpg","","","","",""
"","","","","","image-keyboard-response","425","2.0.0","429534","pq975lypb5a","squirrel","null","stimuli/coast_23.jpg","null","coast","B","non-repeat","null","370","stimuli/coast_23.jpg","","","","",""
"","","","","","image-keyboard-response","426","2.0.0","430538","pq975lypb5a","squirrel","null","stimuli/bar_56.jpg","null","bar","C","non-repeat","null","371","stimuli/bar_56.jpg","","","","",""
"","","","","","image-keyboard-response","427","2.0.0","431542","pq975lypb5a","squirrel","null","stimuli/bridge_13.jpg","null","bridge","D","non-repeat","null","372","stimuli/bridge_13.jpg","","","","",""
"","","","","","image-keyboard-response","428","2.0.0","432545","pq975lypb5a","squirrel","null","stimuli/bathroom_28.jpg","null","bathroom","E","non-repeat","null","373","stimuli/bathroom_28.jpg","","","","",""
"","","","","","image-keyboard-response","429","2.0.0","433548","pq975lypb5a","squirrel","null","stimuli/woods_26.jpg","null","woods","F","non-repeat","null","374","stimuli/woods_26.jpg","","","","",""
"","","","","","image-keyboard-response","430","2.0.0","434553","pq975lypb5a","squirrel","null","stimuli/street_32.jpg","null","street","A","non-repeat","null","375","stimuli/street_32.jpg","","","","",""
"","","","","","image-keyboard-response","431","2.0.0","435556","pq975lypb5a","squirrel","404","stimuli/street_32.jpg"," ","street","A","repeat"," ","375","","","","","",""
"","","","","","image-keyboard-response","432","2.0.0","436561","pq975lypb5a","squirrel","null","stimuli/coast_23.jpg","null","coast","B","non-repeat","null","376","stimuli/coast_23.jpg","","","","",""
"","","","","","image-keyboard-response","433","2.0.0","437565","pq975lypb5a","squirrel","null","stimuli/bar_56.jpg","null","bar","C","non-repeat","null","377","stimuli/bar_56.jpg","","","","",""
"","","","","","image-keyboard-response","434","2.0.0","438568","pq975lypb5a","squirrel","null","stimuli/field_37.jpg","null","field","J","non-repeat","null","378","stimuli/field_37.jpg","","","","",""
"","","","","","image-keyboard-response","435","2.0.0","439571","pq975lypb5a","squirrel","null","stimuli/kitchen_60.jpg","null","kitchen","K","non-repeat","null","379","stimuli/kitchen_60.jpg","","","","",""
"","","","","","image-keyboard-response","436","2.0.0","440574","pq975lypb5a","squirrel","null","stimuli/playground_26.jpg","null","playground","L","non-repeat","null","380","stimuli/playground_26.jpg","","","","",""
"","","","","","image-keyboard-response","437","2.0.0","441577","pq975lypb5a","squirrel","null","stimuli/gym_33.jpg","null","gym","G","non-repeat","null","381","stimuli/gym_33.jpg","","","","",""
"","","","","","image-keyboard-response","438","2.0.0","442580","pq975lypb5a","squirrel","null","stimuli/desert_36.jpg","null","desert","H","non-repeat","null","382","stimuli/desert_36.jpg","","","","",""
"","","","","","image-keyboard-response","439","2.0.0","443583","pq975lypb5a","squirrel","null","stimuli/stream_29.jpg","null","stream","I","non-repeat","null","383","stimuli/stream_29.jpg","","","","",""
"","","","","","image-keyboard-response","440","2.0.0","444585","pq975lypb5a","squirrel","null","stimuli/bridge_13.jpg","null","bridge","D","non-repeat","null","384","stimuli/bridge_13.jpg","","","","",""
"","","","","","image-keyboard-response","441","2.0.0","445589","pq975lypb5a","squirrel","null","stimuli/bathroom_28.jpg","null","bathroom","E","non-repeat","null","385","stimuli/bathroom_28.jpg","","","","",""
"","","","","","image-keyboard-response","442","2.0.0","446592","pq975lypb5a","squirrel","null","stimuli/woods_26.jpg","null","woods","F","non-repeat","null","386","stimuli/woods_26.jpg","","","","",""
"","","","","","image-keyboard-response","443","2.0.0","447596","pq975lypb5a","squirrel","null","stimuli/field_37.jpg","null","field","J","non-repeat","null","387","stimuli/field_37.jpg","","","","",""
"","","","","","image-keyboard-response","444","2.0.0","448600","pq975lypb5a","squirrel","null","stimuli/kitchen_60.jpg","null","kitchen","K","non-repeat","null","388","stimuli/kitchen_60.jpg","","","","",""
"","","","","","image-keyboard-response","445","2.0.0","449604","pq975lypb5a","squirrel","null","stimuli/playground_26.jpg","null","playground","L","non-repeat","null","389","stimuli/playground_26.jpg","","","","",""
"","","","","","image-keyboard-response","446","2.0.0","450607","pq975lypb5a","squirrel","null","stimuli/gym_33.jpg","null","gym","G","non-repeat","null","390","stimuli/gym_33.jpg","","","","",""
"","","","","","image-keyboard-response","447","2.0.0","451610","pq975lypb5a","squirrel","null","stimuli/gym_33.jpg","null","gym","G","repeat"," ","390","","","","","",""
"","","","","","image-keyboard-response","448","2.0.0","452614","pq975lypb5a","squirrel","null","stimuli/desert_36.jpg","null","desert","H","non-repeat","null","391","stimuli/desert_36.jpg","","","","",""
"","","","","","image-keyboard-response","449","2.0.0","453617","pq975lypb5a","squirrel","null","stimuli/stream_29.jpg","null","stream","I","non-repeat","null","392","stimuli/stream_29.jpg","","","","",""
"","","","","","image-keyboard-response","450","2.0.0","454620","pq975lypb5a","squirrel","null","stimuli/field_37.jpg","null","field","J","non-repeat","null","393","stimuli/field_37.jpg","","","","",""
"","","","","","image-keyboard-response","451","2.0.0","455625","pq975lypb5a","squirrel","360","stimuli/field_37.jpg"," ","field","J","repeat"," ","393","","","","","",""
"","","","","","image-keyboard-response","452","2.0.0","456629","pq975lypb5a","squirrel","null","stimuli/kitchen_60.jpg","null","kitchen","K","non-repeat","null","394","stimuli/kitchen_60.jpg","","","","",""
"","","","","","image-keyboard-response","453","2.0.0","457633","pq975lypb5a","squirrel","null","stimuli/playground_26.jpg","null","playground","L","non-repeat","null","395","stimuli/playground_26.jpg","","","","",""
"","","","","","image-keyboard-response","454","2.0.0","458635","pq975lypb5a","squirrel","null","stimuli/bridge_13.jpg","null","bridge","D","non-repeat","null","396","stimuli/bridge_13.jpg","","","","",""
"","","","","","image-keyboard-response","455","2.0.0","459639","pq975lypb5a","squirrel","null","stimuli/bathroom_28.jpg","null","bathroom","E","non-repeat","null","397","stimuli/bathroom_28.jpg","","","","",""
"","","","","","image-keyboard-response","456","2.0.0","460643","pq975lypb5a","squirrel","null","stimuli/woods_26.jpg","null","woods","F","non-repeat","null","398","stimuli/woods_26.jpg","","","","",""
"","","","","","image-keyboard-response","457","2.0.0","461647","pq975lypb5a","squirrel","null","stimuli/field_37.jpg","null","field","J","non-repeat","null","399","stimuli/field_37.jpg","","","","",""
"","","","","","image-keyboard-response","458","2.0.0","462651","pq975lypb5a","squirrel","613","stimuli/field_37.jpg"," ","field","J","repeat"," ","399","","","","","",""
"","","","","","image-keyboard-response","459","2.0.0","463654","pq975lypb5a","squirrel","null","stimuli/kitchen_60.jpg","null","kitchen","K","non-repeat","null","400","stimuli/kitchen_60.jpg","","","","",""
"","","","","","image-keyboard-response","460","2.0.0","464658","pq975lypb5a","squirrel","null","stimuli/playground_26.jpg","null","playground","L","non-repeat","null","401","stimuli/playground_26.jpg","","","","",""
"","","","","","image-keyboard-response","461","2.0.0","465662","pq975lypb5a","squirrel","null","stimuli/bridge_13.jpg","null","bridge","D","non-repeat","null","402","stimuli/bridge_13.jpg","","","","",""
"","","","","","image-keyboard-response","462","2.0.0","466665","pq975lypb5a","squirrel","null","stimuli/bathroom_28.jpg","null","bathroom","E","non-repeat","null","403","stimuli/bathroom_28.jpg","","","","",""
"","","","","","image-keyboard-response","463","2.0.0","467669","pq975lypb5a","squirrel","null","stimuli/woods_26.jpg","null","woods","F","non-repeat","null","404","stimuli/woods_26.jpg","","","","",""
"","","","","","image-keyboard-response","464","2.0.0","468673","pq975lypb5a","squirrel","null","stimuli/street_32.jpg","null","street","A","non-repeat","null","405","stimuli/street_32.jpg","","","","",""
"","","","","","image-keyboard-response","465","2.0.0","469677","pq975lypb5a","squirrel","null","stimuli/coast_23.jpg","null","coast","B","non-repeat","null","406","stimuli/coast_23.jpg","","","","",""
"","","","","","image-keyboard-response","466","2.0.0","470680","pq975lypb5a","squirrel","null","stimuli/bar_56.jpg","null","bar","C","non-repeat","null","407","stimuli/bar_56.jpg","","","","",""
"","","","","","image-keyboard-response","467","2.0.0","471685","pq975lypb5a","squirrel","null","stimuli/field_37.jpg","null","field","J","non-repeat","null","408","stimuli/field_37.jpg","","","","",""
"","","","","","image-keyboard-response","468","2.0.0","472689","pq975lypb5a","squirrel","null","stimuli/kitchen_60.jpg","null","kitchen","K","non-repeat","null","409","stimuli/kitchen_60.jpg","","","","",""
"","","","","","image-keyboard-response","469","2.0.0","473692","pq975lypb5a","squirrel","null","stimuli/playground_26.jpg","null","playground","L","non-repeat","null","410","stimuli/playground_26.jpg","","","","",""
"","","","","","image-keyboard-response","470","2.0.0","474696","pq975lypb5a","squirrel","null","stimuli/bridge_13.jpg","null","bridge","D","non-repeat","null","411","stimuli/bridge_13.jpg","","","","",""
"","","","","","image-keyboard-response","471","2.0.0","475700","pq975lypb5a","squirrel","null","stimuli/bathroom_28.jpg","null","bathroom","E","non-repeat","null","412","stimuli/bathroom_28.jpg","","","","",""
"","","","","","image-keyboard-response","472","2.0.0","476703","pq975lypb5a","squirrel","null","stimuli/woods_26.jpg","null","woods","F","non-repeat","null","413","stimuli/woods_26.jpg","","","","",""
"","","","","","html-keyboard-response","473","2.0.0","483615","pq975lypb5a","squirrel","6910","
    <div style='width:900px;margin: auto;'><p>In the next part of the experiment, we want to see how well you learned the structure in the stream of images.</p>
    <p>On each trial, you will see two sequences of three images, sequence 1 and 2. We will ask you to indicate which sequence was more familiar based on the first part of the experiment.</p>
    <p>Press 1 if the first sequence (sequence 1) felt more familiar. Press 2 if the second sequence (sequence 2) felt more familiar.</p>
    <p>Press any key to begin.</p></div>"," ","","","","","","","","","","",""
"","","","","","html-keyboard-response","474","2.0.0","484618","pq975lypb5a","squirrel","null","<p>Sequence 1</p>","null","","","","","","","","","","",""
"","","","","","image-keyboard-response","475","2.0.0","485622","pq975lypb5a","squirrel","null","stimuli/bridge_13.jpg","null","","","","","","","","","","",""
"","","","","","image-keyboard-response","476","2.0.0","486626","pq975lypb5a","squirrel","null","stimuli/bathroom_28.jpg","null","","","","","","","","","","",""
"","","","","","image-keyboard-response","477","2.0.0","487630","pq975lypb5a","squirrel","null","stimuli/woods_26.jpg","null","","","","","","","","","","",""
"","","","","","html-keyboard-response","478","2.0.0","488633","pq975lypb5a","squirrel","null","<p></p>","null","","","","","","","","","","",""
"","","","","","html-keyboard-response","479","2.0.0","489636","pq975lypb5a","squirrel","null","<p>Sequence 2</p>","null","","","","","","","","","","",""
"","","","","","image-keyboard-response","480","2.0.0","490640","pq975lypb5a","squirrel","null","stimuli/gym_33.jpg","null","","","","","","","","","","",""
"","","","","","image-keyboard-response","481","2.0.0","491644","pq975lypb5a","squirrel","null","stimuli/kitchen_60.jpg","null","","","","","","","","","","",""
"","","","","","image-keyboard-response","482","2.0.0","492648","pq975lypb5a","squirrel","null","stimuli/bar_56.jpg","null","","","","","","","","","","",""
"","","","","","html-keyboard-response","483","2.0.0","494686","pq975lypb5a","squirrel","2037","<p>Press '1' if the first sequence was familiar, '2' if the second was.</p>","1","","","1","","","","[""D"",""E"",""F""]","[""G"",""K"",""C""]","true","[""<p>Sequence 1</p>"",""stimuli/bridge_13.jpg"",""stimuli/bathroom_28.jpg"",""stimuli/woods_26.jpg""]","[""<p>Sequence 2</p>"",""stimuli/gym_33.jpg"",""stimuli/kitchen_60.jpg"",""stimuli/bar_56.jpg""]"
"","","","","","html-keyboard-response","484","2.0.0","495689","pq975lypb5a","squirrel","null","<p>Sequence 1</p>","null","","","","","","","","","","",""
"","","","","","image-keyboard-response","485","2.0.0","496692","pq975lypb5a","squirrel","null","stimuli/field_37.jpg","null","","","","","","","","","","",""
"","","","","","image-keyboard-response","486","2.0.0","497694","pq975lypb5a","squirrel","null","stimuli/coast_23.jpg","null","","","","","","","","","","",""
"","","","","","image-keyboard-response","487","2.0.0","498698","pq975lypb5a","squirrel","null","stimuli/woods_26.jpg","null","","","","","","","","","","",""
"","","","","","html-keyboard-response","488","2.0.0","499701","pq975lypb5a","squirrel","null","<p></p>","null","","","","","","","","","","",""
"","","","","","html-keyboard-response","489","2.0.0","500704","pq975lypb5a","squirrel","null","<p>Sequence 2</p>","null","","","","","","","","","","",""
"","","","","","image-keyboard-response","490","2.0.0","501708","pq975lypb5a","squirrel","null","stimuli/street_32.jpg","null","","","","","","","","","","",""
"","","","","","image-keyboard-response","491","2.0.0","502711","pq975lypb5a","squirrel","null","stimuli/coast_23.jpg","null","","","","","","","","","","",""
"","","","","","image-keyboard-response","492","2.0.0","503713","pq975lypb5a","squirrel","null","stimuli/bar_56.jpg","null","","","","","","","","","","",""
"","","","","","html-keyboard-response","493","2.0.0","504462","pq975lypb5a","squirrel","747","<p>Press '1' if the first sequence was familiar, '2' if the second was.</p>","2","","","2","","","","[""A"",""B"",""C""]","[""J"",""B"",""F""]","true","[""<p>Sequence 1</p>"",""stimuli/field_37.jpg"",""stimuli/coast_23.jpg"",""stimuli/woods_26.jpg""]","[""<p>Sequence 2</p>"",""stimuli/street_32.jpg"",""stimuli/coast_23.jpg"",""stimuli/bar_56.jpg""]"
