"success","timeout","failed_images","failed_audio","failed_video","trial_type","trial_index","plugin_version","time_elapsed","random_id","participant","rt","stimulus","response","category","letter","correct_response","correct_response_key","trial_counter","current_image","test_triplet","foil_triplet","correct","firstSequencePaths","secondSequencePaths"
"true","false","[]","[]","[]","preload","0","2.0.0","396","pr5oady3g9p","shark","","","","","","","","","","","","","",""
"true","","","","","fullscreen","1","null","2384","pr5oady3g9p","shark","984","","","","","","","","","","","","",""
"","","","","","html-keyboard-response","2","2.0.0","3049","pr5oady3g9p","shark","664","Welcome to the experiment. Press any key to begin."," ","","","","","","","","","","",""
"","","","","","survey-text","3","2.0.0","5378","pr5oady3g9p","shark","2327","","{""participant_id"":""shark""}","","","","","","","","","","",""
"","","","","","html-keyboard-response","4","2.0.0","6099","pr5oady3g9p","shark","719","
  <p>For this trial, you will see a series of images.</p>
  <p><b>Press the spacebar whenever you see the same image appear twice in a row.</b></p>
  <p>In other words, whenever the same image repeats back to back, press the spacebar.</p>
  <p>Press any key to begin.</p>","j","","","","","","","","","","",""
"","","","","","image-keyboard-response","5","2.0.0","7107","pr5oady3g9p","shark","null","stimuli/bar_55.jpg","null","bar","D","non-repeat","null","0","stimuli/bar_55.jpg","","","","",""
"","","","","","image-keyboard-response","6","2.0.0","8112","pr5oady3g9p","shark","null","stimuli/stream_24.jpg","null","stream","E","non-repeat","null","1","stimuli/stream_24.jpg","","","","",""
"","","","","","image-keyboard-response","7","2.0.0","9123","pr5oady3g9p","shark","null","stimuli/field_26.jpg","null","field","F","non-repeat","null","2","stimuli/field_26.jpg","","","","",""
"","","","","","image-keyboard-response","8","2.0.0","10132","pr5oady3g9p","shark","null","stimuli/bridge_36.jpg","null","bridge","J","non-repeat","null","3","stimuli/bridge_36.jpg","","","","",""
"","","","","","image-keyboard-response","9","2.0.0","11136","pr5oady3g9p","shark","null","stimuli/woods_64.jpg","null","woods","K","non-repeat","null","4","stimuli/woods_64.jpg","","","","",""
"","","","","","image-keyboard-response","10","2.0.0","12152","pr5oady3g9p","shark","null","stimuli/kitchen_30.jpg","null","kitchen","L","non-repeat","null","5","stimuli/kitchen_30.jpg","","","","",""
"","","","","","image-keyboard-response","11","2.0.0","13167","pr5oady3g9p","shark","null","stimuli/street_14.jpg","null","street","A","non-repeat","null","6","stimuli/street_14.jpg","","","","",""
"","","","","","image-keyboard-response","12","2.0.0","14171","pr5oady3g9p","shark","null","stimuli/bathroom_6.jpg","null","bathroom","B","non-repeat","null","7","stimuli/bathroom_6.jpg","","","","",""
"","","","","","image-keyboard-response","13","2.0.0","15173","pr5oady3g9p","shark","null","stimuli/desert_17.jpg","null","desert","C","non-repeat","null","8","stimuli/desert_17.jpg","","","","",""
"","","","","","image-keyboard-response","14","2.0.0","16178","pr5oady3g9p","shark","null","stimuli/playground_2.jpg","null","playground","G","non-repeat","null","9","stimuli/playground_2.jpg","","","","",""
"","","","","","image-keyboard-response","15","2.0.0","17192","pr5oady3g9p","shark","379","stimuli/playground_2.jpg"," ","playground","G","repeat"," ","9","","","","","",""
"","","","","","image-keyboard-response","16","2.0.0","18202","pr5oady3g9p","shark","null","stimuli/coast_64.jpg","null","coast","H","non-repeat","null","10","stimuli/coast_64.jpg","","","","",""
"","","","","","image-keyboard-response","17","2.0.0","19207","pr5oady3g9p","shark","null","stimuli/gym_10.jpg","null","gym","I","non-repeat","null","11","stimuli/gym_10.jpg","","","","",""
"","","","","","image-keyboard-response","18","2.0.0","20213","pr5oady3g9p","shark","null","stimuli/bridge_36.jpg","null","bridge","J","non-repeat","null","12","stimuli/bridge_36.jpg","","","","",""
"","","","","","image-keyboard-response","19","2.0.0","21226","pr5oady3g9p","shark","null","stimuli/woods_64.jpg","null","woods","K","non-repeat","null","13","stimuli/woods_64.jpg","","","","",""
"","","","","","image-keyboard-response","20","2.0.0","22230","pr5oady3g9p","shark","null","stimuli/kitchen_30.jpg","null","kitchen","L","non-repeat","null","14","stimuli/kitchen_30.jpg","","","","",""
"","","","","","image-keyboard-response","21","2.0.0","23237","pr5oady3g9p","shark","439","stimuli/kitchen_30.jpg"," ","kitchen","L","repeat"," ","14","","","","","",""
"","","","","","image-keyboard-response","22","2.0.0","24253","pr5oady3g9p","shark","null","stimuli/playground_2.jpg","null","playground","G","non-repeat","null","15","stimuli/playground_2.jpg","","","","",""
"","","","","","image-keyboard-response","23","2.0.0","25258","pr5oady3g9p","shark","null","stimuli/coast_64.jpg","null","coast","H","non-repeat","null","16","stimuli/coast_64.jpg","","","","",""
"","","","","","image-keyboard-response","24","2.0.0","26269","pr5oady3g9p","shark","null","stimuli/gym_10.jpg","null","gym","I","non-repeat","null","17","stimuli/gym_10.jpg","","","","",""
"","","","","","image-keyboard-response","25","2.0.0","27274","pr5oady3g9p","shark","null","stimuli/bar_55.jpg","null","bar","D","non-repeat","null","18","stimuli/bar_55.jpg","","","","",""
"","","","","","image-keyboard-response","26","2.0.0","28284","pr5oady3g9p","shark","null","stimuli/stream_24.jpg","null","stream","E","non-repeat","null","19","stimuli/stream_24.jpg","","","","",""
"","","","","","image-keyboard-response","27","2.0.0","29288","pr5oady3g9p","shark","null","stimuli/field_26.jpg","null","field","F","non-repeat","null","20","stimuli/field_26.jpg","","","","",""
"","","","","","image-keyboard-response","28","2.0.0","30292","pr5oady3g9p","shark","null","stimuli/playground_2.jpg","null","playground","G","non-repeat","null","21","stimuli/playground_2.jpg","","","","",""
"","","","","","image-keyboard-response","29","2.0.0","31299","pr5oady3g9p","shark","null","stimuli/coast_64.jpg","null","coast","H","non-repeat","null","22","stimuli/coast_64.jpg","","","","",""
"","","","","","image-keyboard-response","30","2.0.0","32314","pr5oady3g9p","shark","null","stimuli/gym_10.jpg","null","gym","I","non-repeat","null","23","stimuli/gym_10.jpg","","","","",""
"","","","","","image-keyboard-response","31","2.0.0","33328","pr5oady3g9p","shark","null","stimuli/bridge_36.jpg","null","bridge","J","non-repeat","null","24","stimuli/bridge_36.jpg","","","","",""
"","","","","","image-keyboard-response","32","2.0.0","34332","pr5oady3g9p","shark","null","stimuli/woods_64.jpg","null","woods","K","non-repeat","null","25","stimuli/woods_64.jpg","","","","",""
"","","","","","image-keyboard-response","33","2.0.0","35337","pr5oady3g9p","shark","null","stimuli/kitchen_30.jpg","null","kitchen","L","non-repeat","null","26","stimuli/kitchen_30.jpg","","","","",""
"","","","","","image-keyboard-response","34","2.0.0","36342","pr5oady3g9p","shark","null","stimuli/playground_2.jpg","null","playground","G","non-repeat","null","27","stimuli/playground_2.jpg","","","","",""
"","","","","","image-keyboard-response","35","2.0.0","37352","pr5oady3g9p","shark","null","stimuli/coast_64.jpg","null","coast","H","non-repeat","null","28","stimuli/coast_64.jpg","","","","",""
"","","","","","image-keyboard-response","36","2.0.0","38362","pr5oady3g9p","shark","null","stimuli/gym_10.jpg","null","gym","I","non-repeat","null","29","stimuli/gym_10.jpg","","","","",""
"","","","","","image-keyboard-response","37","2.0.0","39379","pr5oady3g9p","shark","null","stimuli/bar_55.jpg","null","bar","D","non-repeat","null","30","stimuli/bar_55.jpg","","","","",""
"","","","","","image-keyboard-response","38","2.0.0","40387","pr5oady3g9p","shark","426","stimuli/bar_55.jpg"," ","bar","D","repeat"," ","30","","","","","",""
"","","","","","image-keyboard-response","39","2.0.0","41395","pr5oady3g9p","shark","null","stimuli/stream_24.jpg","null","stream","E","non-repeat","null","31","stimuli/stream_24.jpg","","","","",""
"","","","","","image-keyboard-response","40","2.0.0","42409","pr5oady3g9p","shark","null","stimuli/field_26.jpg","null","field","F","non-repeat","null","32","stimuli/field_26.jpg","","","","",""
"","","","","","image-keyboard-response","41","2.0.0","43413","pr5oady3g9p","shark","null","stimuli/bridge_36.jpg","null","bridge","J","non-repeat","null","33","stimuli/bridge_36.jpg","","","","",""
"","","","","","image-keyboard-response","42","2.0.0","44417","pr5oady3g9p","shark","null","stimuli/woods_64.jpg","null","woods","K","non-repeat","null","34","stimuli/woods_64.jpg","","","","",""
"","","","","","image-keyboard-response","43","2.0.0","45423","pr5oady3g9p","shark","null","stimuli/kitchen_30.jpg","null","kitchen","L","non-repeat","null","35","stimuli/kitchen_30.jpg","","","","",""
"","","","","","image-keyboard-response","44","2.0.0","46433","pr5oady3g9p","shark","369","stimuli/kitchen_30.jpg"," ","kitchen","L","repeat"," ","35","","","","","",""
"","","","","","image-keyboard-response","45","2.0.0","47435","pr5oady3g9p","shark","null","stimuli/playground_2.jpg","null","playground","G","non-repeat","null","36","stimuli/playground_2.jpg","","","","",""
"","","","","","image-keyboard-response","46","2.0.0","48449","pr5oady3g9p","shark","543","stimuli/playground_2.jpg"," ","playground","G","repeat"," ","36","","","","","",""
"","","","","","image-keyboard-response","47","2.0.0","49454","pr5oady3g9p","shark","null","stimuli/coast_64.jpg","null","coast","H","non-repeat","null","37","stimuli/coast_64.jpg","","","","",""
"","","","","","image-keyboard-response","48","2.0.0","50465","pr5oady3g9p","shark","null","stimuli/gym_10.jpg","null","gym","I","non-repeat","null","38","stimuli/gym_10.jpg","","","","",""
"","","","","","image-keyboard-response","49","2.0.0","51474","pr5oady3g9p","shark","null","stimuli/street_14.jpg","null","street","A","non-repeat","null","39","stimuli/street_14.jpg","","","","",""
"","","","","","image-keyboard-response","50","2.0.0","52480","pr5oady3g9p","shark","401","stimuli/street_14.jpg"," ","street","A","repeat"," ","39","","","","","",""
"","","","","","image-keyboard-response","51","2.0.0","53497","pr5oady3g9p","shark","null","stimuli/bathroom_6.jpg","null","bathroom","B","non-repeat","null","40","stimuli/bathroom_6.jpg","","","","",""
"","","","","","image-keyboard-response","52","2.0.0","54509","pr5oady3g9p","shark","null","stimuli/desert_17.jpg","null","desert","C","non-repeat","null","41","stimuli/desert_17.jpg","","","","",""
"","","","","","image-keyboard-response","53","2.0.0","55523","pr5oady3g9p","shark","null","stimuli/bar_55.jpg","null","bar","D","non-repeat","null","42","stimuli/bar_55.jpg","","","","",""
"","","","","","image-keyboard-response","54","2.0.0","56538","pr5oady3g9p","shark","null","stimuli/stream_24.jpg","null","stream","E","non-repeat","null","43","stimuli/stream_24.jpg","","","","",""
"","","","","","image-keyboard-response","55","2.0.0","57551","pr5oady3g9p","shark","null","stimuli/field_26.jpg","null","field","F","non-repeat","null","44","stimuli/field_26.jpg","","","","",""
"","","","","","image-keyboard-response","56","2.0.0","58560","pr5oady3g9p","shark","592","stimuli/field_26.jpg"," ","field","F","repeat"," ","44","","","","","",""
"","","","","","image-keyboard-response","57","2.0.0","59572","pr5oady3g9p","shark","null","stimuli/bridge_36.jpg","null","bridge","J","non-repeat","null","45","stimuli/bridge_36.jpg","","","","",""
"","","","","","image-keyboard-response","58","2.0.0","60574","pr5oady3g9p","shark","581","stimuli/bridge_36.jpg"," ","bridge","J","repeat"," ","45","","","","","",""
"","","","","","image-keyboard-response","59","2.0.0","61590","pr5oady3g9p","shark","null","stimuli/woods_64.jpg","null","woods","K","non-repeat","null","46","stimuli/woods_64.jpg","","","","",""
"","","","","","image-keyboard-response","60","2.0.0","62597","pr5oady3g9p","shark","null","stimuli/kitchen_30.jpg","null","kitchen","L","non-repeat","null","47","stimuli/kitchen_30.jpg","","","","",""
"","","","","","image-keyboard-response","61","2.0.0","63600","pr5oady3g9p","shark","333","stimuli/kitchen_30.jpg"," ","kitchen","L","repeat"," ","47","","","","","",""
"","","","","","image-keyboard-response","62","2.0.0","64605","pr5oady3g9p","shark","null","stimuli/bar_55.jpg","null","bar","D","non-repeat","null","48","stimuli/bar_55.jpg","","","","",""
"","","","","","image-keyboard-response","63","2.0.0","65610","pr5oady3g9p","shark","null","stimuli/stream_24.jpg","null","stream","E","non-repeat","null","49","stimuli/stream_24.jpg","","","","",""
"","","","","","image-keyboard-response","64","2.0.0","66619","pr5oady3g9p","shark","null","stimuli/field_26.jpg","null","field","F","non-repeat","null","50","stimuli/field_26.jpg","","","","",""
"","","","","","image-keyboard-response","65","2.0.0","67630","pr5oady3g9p","shark","null","stimuli/playground_2.jpg","null","playground","G","non-repeat","null","51","stimuli/playground_2.jpg","","","","",""
"","","","","","image-keyboard-response","66","2.0.0","68637","pr5oady3g9p","shark","null","stimuli/coast_64.jpg","null","coast","H","non-repeat","null","52","stimuli/coast_64.jpg","","","","",""
"","","","","","image-keyboard-response","67","2.0.0","69642","pr5oady3g9p","shark","null","stimuli/gym_10.jpg","null","gym","I","non-repeat","null","53","stimuli/gym_10.jpg","","","","",""
"","","","","","image-keyboard-response","68","2.0.0","70650","pr5oady3g9p","shark","null","stimuli/bridge_36.jpg","null","bridge","J","non-repeat","null","54","stimuli/bridge_36.jpg","","","","",""
"","","","","","image-keyboard-response","69","2.0.0","71657","pr5oady3g9p","shark","546","stimuli/bridge_36.jpg"," ","bridge","J","repeat"," ","54","","","","","",""
"","","","","","image-keyboard-response","70","2.0.0","72662","pr5oady3g9p","shark","null","stimuli/woods_64.jpg","null","woods","K","non-repeat","null","55","stimuli/woods_64.jpg","","","","",""
"","","","","","image-keyboard-response","71","2.0.0","73667","pr5oady3g9p","shark","null","stimuli/kitchen_30.jpg","null","kitchen","L","non-repeat","null","56","stimuli/kitchen_30.jpg","","","","",""
"","","","","","image-keyboard-response","72","2.0.0","74670","pr5oady3g9p","shark","null","stimuli/street_14.jpg","null","street","A","non-repeat","null","57","stimuli/street_14.jpg","","","","",""
"","","","","","image-keyboard-response","73","2.0.0","75685","pr5oady3g9p","shark","null","stimuli/bathroom_6.jpg","null","bathroom","B","non-repeat","null","58","stimuli/bathroom_6.jpg","","","","",""
"","","","","","image-keyboard-response","74","2.0.0","76692","pr5oady3g9p","shark","null","stimuli/desert_17.jpg","null","desert","C","non-repeat","null","59","stimuli/desert_17.jpg","","","","",""
"","","","","","image-keyboard-response","75","2.0.0","77698","pr5oady3g9p","shark","null","stimuli/bridge_36.jpg","null","bridge","J","non-repeat","null","60","stimuli/bridge_36.jpg","","","","",""
"","","","","","image-keyboard-response","76","2.0.0","78711","pr5oady3g9p","shark","null","stimuli/woods_64.jpg","null","woods","K","non-repeat","null","61","stimuli/woods_64.jpg","","","","",""
"","","","","","image-keyboard-response","77","2.0.0","79724","pr5oady3g9p","shark","null","stimuli/kitchen_30.jpg","null","kitchen","L","non-repeat","null","62","stimuli/kitchen_30.jpg","","","","",""
"","","","","","image-keyboard-response","78","2.0.0","80726","pr5oady3g9p","shark","null","stimuli/street_14.jpg","null","street","A","non-repeat","null","63","stimuli/street_14.jpg","","","","",""
"","","","","","image-keyboard-response","79","2.0.0","81738","pr5oady3g9p","shark","null","stimuli/bathroom_6.jpg","null","bathroom","B","non-repeat","null","64","stimuli/bathroom_6.jpg","","","","",""
"","","","","","image-keyboard-response","80","2.0.0","82740","pr5oady3g9p","shark","null","stimuli/desert_17.jpg","null","desert","C","non-repeat","null","65","stimuli/desert_17.jpg","","","","",""
"","","","","","image-keyboard-response","81","2.0.0","83747","pr5oady3g9p","shark","null","stimuli/bar_55.jpg","null","bar","D","non-repeat","null","66","stimuli/bar_55.jpg","","","","",""
"","","","","","image-keyboard-response","82","2.0.0","84756","pr5oady3g9p","shark","null","stimuli/stream_24.jpg","null","stream","E","non-repeat","null","67","stimuli/stream_24.jpg","","","","",""
"","","","","","image-keyboard-response","83","2.0.0","85758","pr5oady3g9p","shark","null","stimuli/field_26.jpg","null","field","F","non-repeat","null","68","stimuli/field_26.jpg","","","","",""
"","","","","","image-keyboard-response","84","2.0.0","86766","pr5oady3g9p","shark","null","stimuli/street_14.jpg","null","street","A","non-repeat","null","69","stimuli/street_14.jpg","","","","",""
"","","","","","image-keyboard-response","85","2.0.0","87781","pr5oady3g9p","shark","null","stimuli/bathroom_6.jpg","null","bathroom","B","non-repeat","null","70","stimuli/bathroom_6.jpg","","","","",""
"","","","","","image-keyboard-response","86","2.0.0","88793","pr5oady3g9p","shark","null","stimuli/desert_17.jpg","null","desert","C","non-repeat","null","71","stimuli/desert_17.jpg","","","","",""
"","","","","","image-keyboard-response","87","2.0.0","89809","pr5oady3g9p","shark","null","stimuli/bridge_36.jpg","null","bridge","J","non-repeat","null","72","stimuli/bridge_36.jpg","","","","",""
"","","","","","image-keyboard-response","88","2.0.0","90819","pr5oady3g9p","shark","null","stimuli/woods_64.jpg","null","woods","K","non-repeat","null","73","stimuli/woods_64.jpg","","","","",""
"","","","","","image-keyboard-response","89","2.0.0","91828","pr5oady3g9p","shark","null","stimuli/kitchen_30.jpg","null","kitchen","L","non-repeat","null","74","stimuli/kitchen_30.jpg","","","","",""
"","","","","","image-keyboard-response","90","2.0.0","92836","pr5oady3g9p","shark","null","stimuli/street_14.jpg","null","street","A","non-repeat","null","75","stimuli/street_14.jpg","","","","",""
"","","","","","image-keyboard-response","91","2.0.0","93846","pr5oady3g9p","shark","595","stimuli/street_14.jpg"," ","street","A","repeat"," ","75","","","","","",""
"","","","","","image-keyboard-response","92","2.0.0","94853","pr5oady3g9p","shark","null","stimuli/bathroom_6.jpg","null","bathroom","B","non-repeat","null","76","stimuli/bathroom_6.jpg","","","","",""
"","","","","","image-keyboard-response","93","2.0.0","95859","pr5oady3g9p","shark","null","stimuli/desert_17.jpg","null","desert","C","non-repeat","null","77","stimuli/desert_17.jpg","","","","",""
"","","","","","image-keyboard-response","94","2.0.0","96873","pr5oady3g9p","shark","null","stimuli/playground_2.jpg","null","playground","G","non-repeat","null","78","stimuli/playground_2.jpg","","","","",""
"","","","","","image-keyboard-response","95","2.0.0","97875","pr5oady3g9p","shark","null","stimuli/coast_64.jpg","null","coast","H","non-repeat","null","79","stimuli/coast_64.jpg","","","","",""
"","","","","","image-keyboard-response","96","2.0.0","98889","pr5oady3g9p","shark","null","stimuli/gym_10.jpg","null","gym","I","non-repeat","null","80","stimuli/gym_10.jpg","","","","",""
"","","","","","image-keyboard-response","97","2.0.0","99899","pr5oady3g9p","shark","null","stimuli/street_14.jpg","null","street","A","non-repeat","null","81","stimuli/street_14.jpg","","","","",""
"","","","","","image-keyboard-response","98","2.0.0","100905","pr5oady3g9p","shark","479","stimuli/street_14.jpg"," ","street","A","repeat"," ","81","","","","","",""
"","","","","","image-keyboard-response","99","2.0.0","101914","pr5oady3g9p","shark","null","stimuli/bathroom_6.jpg","null","bathroom","B","non-repeat","null","82","stimuli/bathroom_6.jpg","","","","",""
"","","","","","image-keyboard-response","100","2.0.0","102920","pr5oady3g9p","shark","null","stimuli/desert_17.jpg","null","desert","C","non-repeat","null","83","stimuli/desert_17.jpg","","","","",""
"","","","","","image-keyboard-response","101","2.0.0","103924","pr5oady3g9p","shark","null","stimuli/bridge_36.jpg","null","bridge","J","non-repeat","null","84","stimuli/bridge_36.jpg","","","","",""
"","","","","","image-keyboard-response","102","2.0.0","104928","pr5oady3g9p","shark","null","stimuli/woods_64.jpg","null","woods","K","non-repeat","null","85","stimuli/woods_64.jpg","","","","",""
"","","","","","image-keyboard-response","103","2.0.0","105942","pr5oady3g9p","shark","null","stimuli/kitchen_30.jpg","null","kitchen","L","non-repeat","null","86","stimuli/kitchen_30.jpg","","","","",""
"","","","","","image-keyboard-response","104","2.0.0","106959","pr5oady3g9p","shark","585","stimuli/kitchen_30.jpg"," ","kitchen","L","repeat"," ","86","","","","","",""
"","","","","","image-keyboard-response","105","2.0.0","107971","pr5oady3g9p","shark","null","stimuli/street_14.jpg","null","street","A","non-repeat","null","87","stimuli/street_14.jpg","","","","",""
"","","","","","image-keyboard-response","106","2.0.0","108984","pr5oady3g9p","shark","null","stimuli/bathroom_6.jpg","null","bathroom","B","non-repeat","null","88","stimuli/bathroom_6.jpg","","","","",""
"","","","","","image-keyboard-response","107","2.0.0","109997","pr5oady3g9p","shark","null","stimuli/desert_17.jpg","null","desert","C","non-repeat","null","89","stimuli/desert_17.jpg","","","","",""
"","","","","","image-keyboard-response","108","2.0.0","111010","pr5oady3g9p","shark","null","stimuli/bridge_36.jpg","null","bridge","J","non-repeat","null","90","stimuli/bridge_36.jpg","","","","",""
"","","","","","image-keyboard-response","109","2.0.0","112022","pr5oady3g9p","shark","null","stimuli/woods_64.jpg","null","woods","K","non-repeat","null","91","stimuli/woods_64.jpg","","","","",""
"","","","","","image-keyboard-response","110","2.0.0","113030","pr5oady3g9p","shark","null","stimuli/kitchen_30.jpg","null","kitchen","L","non-repeat","null","92","stimuli/kitchen_30.jpg","","","","",""
"","","","","","image-keyboard-response","111","2.0.0","114039","pr5oady3g9p","shark","null","stimuli/playground_2.jpg","null","playground","G","non-repeat","null","93","stimuli/playground_2.jpg","","","","",""
"","","","","","image-keyboard-response","112","2.0.0","115053","pr5oady3g9p","shark","null","stimuli/coast_64.jpg","null","coast","H","non-repeat","null","94","stimuli/coast_64.jpg","","","","",""
"","","","","","image-keyboard-response","113","2.0.0","116055","pr5oady3g9p","shark","null","stimuli/gym_10.jpg","null","gym","I","non-repeat","null","95","stimuli/gym_10.jpg","","","","",""
"","","","","","image-keyboard-response","114","2.0.0","117060","pr5oady3g9p","shark","null","stimuli/street_14.jpg","null","street","A","non-repeat","null","96","stimuli/street_14.jpg","","","","",""
"","","","","","image-keyboard-response","115","2.0.0","118076","pr5oady3g9p","shark","null","stimuli/bathroom_6.jpg","null","bathroom","B","non-repeat","null","97","stimuli/bathroom_6.jpg","","","","",""
"","","","","","image-keyboard-response","116","2.0.0","119083","pr5oady3g9p","shark","null","stimuli/desert_17.jpg","null","desert","C","non-repeat","null","98","stimuli/desert_17.jpg","","","","",""
"","","","","","image-keyboard-response","117","2.0.0","120092","pr5oady3g9p","shark","635","stimuli/desert_17.jpg"," ","desert","C","repeat"," ","98","","","","","",""
"","","","","","image-keyboard-response","118","2.0.0","121105","pr5oady3g9p","shark","null","stimuli/bar_55.jpg","null","bar","D","non-repeat","null","99","stimuli/bar_55.jpg","","","","",""
"","","","","","image-keyboard-response","119","2.0.0","122108","pr5oady3g9p","shark","null","stimuli/stream_24.jpg","null","stream","E","non-repeat","null","100","stimuli/stream_24.jpg","","","","",""
"","","","","","image-keyboard-response","120","2.0.0","123116","pr5oady3g9p","shark","null","stimuli/field_26.jpg","null","field","F","non-repeat","null","101","stimuli/field_26.jpg","","","","",""
"","","","","","image-keyboard-response","121","2.0.0","124118","pr5oady3g9p","shark","527","stimuli/field_26.jpg"," ","field","F","repeat"," ","101","","","","","",""
"","","","","","image-keyboard-response","122","2.0.0","125122","pr5oady3g9p","shark","null","stimuli/playground_2.jpg","null","playground","G","non-repeat","null","102","stimuli/playground_2.jpg","","","","",""
"","","","","","image-keyboard-response","123","2.0.0","126133","pr5oady3g9p","shark","null","stimuli/coast_64.jpg","null","coast","H","non-repeat","null","103","stimuli/coast_64.jpg","","","","",""
"","","","","","image-keyboard-response","124","2.0.0","127139","pr5oady3g9p","shark","null","stimuli/gym_10.jpg","null","gym","I","non-repeat","null","104","stimuli/gym_10.jpg","","","","",""
"","","","","","image-keyboard-response","125","2.0.0","128142","pr5oady3g9p","shark","null","stimuli/bar_55.jpg","null","bar","D","non-repeat","null","105","stimuli/bar_55.jpg","","","","",""
"","","","","","image-keyboard-response","126","2.0.0","129151","pr5oady3g9p","shark","null","stimuli/stream_24.jpg","null","stream","E","non-repeat","null","106","stimuli/stream_24.jpg","","","","",""
"","","","","","image-keyboard-response","127","2.0.0","130167","pr5oady3g9p","shark","null","stimuli/field_26.jpg","null","field","F","non-repeat","null","107","stimuli/field_26.jpg","","","","",""
"","","","","","image-keyboard-response","128","2.0.0","131178","pr5oady3g9p","shark","null","stimuli/bridge_36.jpg","null","bridge","J","non-repeat","null","108","stimuli/bridge_36.jpg","","","","",""
"","","","","","image-keyboard-response","129","2.0.0","132186","pr5oady3g9p","shark","582","stimuli/bridge_36.jpg"," ","bridge","J","repeat"," ","108","","","","","",""
"","","","","","image-keyboard-response","130","2.0.0","133193","pr5oady3g9p","shark","null","stimuli/woods_64.jpg","null","woods","K","non-repeat","null","109","stimuli/woods_64.jpg","","","","",""
"","","","","","image-keyboard-response","131","2.0.0","134198","pr5oady3g9p","shark","null","stimuli/kitchen_30.jpg","null","kitchen","L","non-repeat","null","110","stimuli/kitchen_30.jpg","","","","",""
"","","","","","image-keyboard-response","132","2.0.0","135206","pr5oady3g9p","shark","null","stimuli/playground_2.jpg","null","playground","G","non-repeat","null","111","stimuli/playground_2.jpg","","","","",""
"","","","","","image-keyboard-response","133","2.0.0","136210","pr5oady3g9p","shark","null","stimuli/coast_64.jpg","null","coast","H","non-repeat","null","112","stimuli/coast_64.jpg","","","","",""
"","","","","","image-keyboard-response","134","2.0.0","137217","pr5oady3g9p","shark","null","stimuli/gym_10.jpg","null","gym","I","non-repeat","null","113","stimuli/gym_10.jpg","","","","",""
"","","","","","image-keyboard-response","135","2.0.0","138218","pr5oady3g9p","shark","null","stimuli/street_14.jpg","null","street","A","non-repeat","null","114","stimuli/street_14.jpg","","","","",""
"","","","","","image-keyboard-response","136","2.0.0","139234","pr5oady3g9p","shark","null","stimuli/bathroom_6.jpg","null","bathroom","B","non-repeat","null","115","stimuli/bathroom_6.jpg","","","","",""
"","","","","","image-keyboard-response","137","2.0.0","140237","pr5oady3g9p","shark","null","stimuli/desert_17.jpg","null","desert","C","non-repeat","null","116","stimuli/desert_17.jpg","","","","",""
"","","","","","image-keyboard-response","138","2.0.0","141244","pr5oady3g9p","shark","null","stimuli/bridge_36.jpg","null","bridge","J","non-repeat","null","117","stimuli/bridge_36.jpg","","","","",""
"","","","","","image-keyboard-response","139","2.0.0","142247","pr5oady3g9p","shark","null","stimuli/woods_64.jpg","null","woods","K","non-repeat","null","118","stimuli/woods_64.jpg","","","","",""
"","","","","","image-keyboard-response","140","2.0.0","143252","pr5oady3g9p","shark","null","stimuli/kitchen_30.jpg","null","kitchen","L","non-repeat","null","119","stimuli/kitchen_30.jpg","","","","",""
"","","","","","image-keyboard-response","141","2.0.0","144264","pr5oady3g9p","shark","null","stimuli/playground_2.jpg","null","playground","G","non-repeat","null","120","stimuli/playground_2.jpg","","","","",""
"","","","","","image-keyboard-response","142","2.0.0","145271","pr5oady3g9p","shark","null","stimuli/coast_64.jpg","null","coast","H","non-repeat","null","121","stimuli/coast_64.jpg","","","","",""
"","","","","","image-keyboard-response","143","2.0.0","146286","pr5oady3g9p","shark","null","stimuli/gym_10.jpg","null","gym","I","non-repeat","null","122","stimuli/gym_10.jpg","","","","",""
"","","","","","image-keyboard-response","144","2.0.0","147302","pr5oady3g9p","shark","null","stimuli/bridge_36.jpg","null","bridge","J","non-repeat","null","123","stimuli/bridge_36.jpg","","","","",""
"","","","","","image-keyboard-response","145","2.0.0","148314","pr5oady3g9p","shark","null","stimuli/woods_64.jpg","null","woods","K","non-repeat","null","124","stimuli/woods_64.jpg","","","","",""
"","","","","","image-keyboard-response","146","2.0.0","149319","pr5oady3g9p","shark","null","stimuli/kitchen_30.jpg","null","kitchen","L","non-repeat","null","125","stimuli/kitchen_30.jpg","","","","",""
"","","","","","image-keyboard-response","147","2.0.0","150327","pr5oady3g9p","shark","null","stimuli/playground_2.jpg","null","playground","G","non-repeat","null","126","stimuli/playground_2.jpg","","","","",""
"","","","","","image-keyboard-response","148","2.0.0","151332","pr5oady3g9p","shark","null","stimuli/coast_64.jpg","null","coast","H","non-repeat","null","127","stimuli/coast_64.jpg","","","","",""
"","","","","","image-keyboard-response","149","2.0.0","152348","pr5oady3g9p","shark","null","stimuli/gym_10.jpg","null","gym","I","non-repeat","null","128","stimuli/gym_10.jpg","","","","",""
"","","","","","image-keyboard-response","150","2.0.0","153361","pr5oady3g9p","shark","null","stimuli/bar_55.jpg","null","bar","D","non-repeat","null","129","stimuli/bar_55.jpg","","","","",""
"","","","","","image-keyboard-response","151","2.0.0","154366","pr5oady3g9p","shark","null","stimuli/stream_24.jpg","null","stream","E","non-repeat","null","130","stimuli/stream_24.jpg","","","","",""
"","","","","","image-keyboard-response","152","2.0.0","155371","pr5oady3g9p","shark","null","stimuli/field_26.jpg","null","field","F","non-repeat","null","131","stimuli/field_26.jpg","","","","",""
"","","","","","image-keyboard-response","153","2.0.0","156375","pr5oady3g9p","shark","null","stimuli/street_14.jpg","null","street","A","non-repeat","null","132","stimuli/street_14.jpg","","","","",""
"","","","","","image-keyboard-response","154","2.0.0","157385","pr5oady3g9p","shark","751","stimuli/street_14.jpg"," ","street","A","repeat"," ","132","","","","","",""
"","","","","","image-keyboard-response","155","2.0.0","158403","pr5oady3g9p","shark","null","stimuli/bathroom_6.jpg","null","bathroom","B","non-repeat","null","133","stimuli/bathroom_6.jpg","","","","",""
"","","","","","image-keyboard-response","156","2.0.0","159418","pr5oady3g9p","shark","null","stimuli/desert_17.jpg","null","desert","C","non-repeat","null","134","stimuli/desert_17.jpg","","","","",""
"","","","","","image-keyboard-response","157","2.0.0","160430","pr5oady3g9p","shark","null","stimuli/bridge_36.jpg","null","bridge","J","non-repeat","null","135","stimuli/bridge_36.jpg","","","","",""
"","","","","","image-keyboard-response","158","2.0.0","161436","pr5oady3g9p","shark","611","stimuli/bridge_36.jpg"," ","bridge","J","repeat"," ","135","","","","","",""
"","","","","","image-keyboard-response","159","2.0.0","162441","pr5oady3g9p","shark","null","stimuli/woods_64.jpg","null","woods","K","non-repeat","null","136","stimuli/woods_64.jpg","","","","",""
"","","","","","image-keyboard-response","160","2.0.0","163454","pr5oady3g9p","shark","null","stimuli/kitchen_30.jpg","null","kitchen","L","non-repeat","null","137","stimuli/kitchen_30.jpg","","","","",""
"","","","","","image-keyboard-response","161","2.0.0","164457","pr5oady3g9p","shark","null","stimuli/street_14.jpg","null","street","A","non-repeat","null","138","stimuli/street_14.jpg","","","","",""
"","","","","","image-keyboard-response","162","2.0.0","165461","pr5oady3g9p","shark","null","stimuli/bathroom_6.jpg","null","bathroom","B","non-repeat","null","139","stimuli/bathroom_6.jpg","","","","",""
"","","","","","image-keyboard-response","163","2.0.0","166463","pr5oady3g9p","shark","null","stimuli/desert_17.jpg","null","desert","C","non-repeat","null","140","stimuli/desert_17.jpg","","","","",""
"","","","","","image-keyboard-response","164","2.0.0","167465","pr5oady3g9p","shark","null","stimuli/bar_55.jpg","null","bar","D","non-repeat","null","141","stimuli/bar_55.jpg","","","","",""
"","","","","","image-keyboard-response","165","2.0.0","168480","pr5oady3g9p","shark","null","stimuli/stream_24.jpg","null","stream","E","non-repeat","null","142","stimuli/stream_24.jpg","","","","",""
"","","","","","image-keyboard-response","166","2.0.0","169481","pr5oady3g9p","shark","null","stimuli/field_26.jpg","null","field","F","non-repeat","null","143","stimuli/field_26.jpg","","","","",""
"","","","","","image-keyboard-response","167","2.0.0","170485","pr5oady3g9p","shark","null","stimuli/playground_2.jpg","null","playground","G","non-repeat","null","144","stimuli/playground_2.jpg","","","","",""
"","","","","","image-keyboard-response","168","2.0.0","171487","pr5oady3g9p","shark","470","stimuli/playground_2.jpg"," ","playground","G","repeat"," ","144","","","","","",""
"","","","","","image-keyboard-response","169","2.0.0","172501","pr5oady3g9p","shark","null","stimuli/coast_64.jpg","null","coast","H","non-repeat","null","145","stimuli/coast_64.jpg","","","","",""
"","","","","","image-keyboard-response","170","2.0.0","173517","pr5oady3g9p","shark","null","stimuli/gym_10.jpg","null","gym","I","non-repeat","null","146","stimuli/gym_10.jpg","","","","",""
"","","","","","image-keyboard-response","171","2.0.0","174520","pr5oady3g9p","shark","null","stimuli/bar_55.jpg","null","bar","D","non-repeat","null","147","stimuli/bar_55.jpg","","","","",""
"","","","","","image-keyboard-response","172","2.0.0","175531","pr5oady3g9p","shark","null","stimuli/stream_24.jpg","null","stream","E","non-repeat","null","148","stimuli/stream_24.jpg","","","","",""
"","","","","","image-keyboard-response","173","2.0.0","176535","pr5oady3g9p","shark","null","stimuli/field_26.jpg","null","field","F","non-repeat","null","149","stimuli/field_26.jpg","","","","",""
"","","","","","image-keyboard-response","174","2.0.0","177538","pr5oady3g9p","shark","396","stimuli/field_26.jpg"," ","field","F","repeat"," ","149","","","","","",""
"","","","","","image-keyboard-response","175","2.0.0","178551","pr5oady3g9p","shark","null","stimuli/street_14.jpg","null","street","A","non-repeat","null","150","stimuli/street_14.jpg","","","","",""
"","","","","","image-keyboard-response","176","2.0.0","179554","pr5oady3g9p","shark","null","stimuli/bathroom_6.jpg","null","bathroom","B","non-repeat","null","151","stimuli/bathroom_6.jpg","","","","",""
"","","","","","image-keyboard-response","177","2.0.0","180559","pr5oady3g9p","shark","null","stimuli/desert_17.jpg","null","desert","C","non-repeat","null","152","stimuli/desert_17.jpg","","","","",""
"","","","","","image-keyboard-response","178","2.0.0","181571","pr5oady3g9p","shark","null","stimuli/bar_55.jpg","null","bar","D","non-repeat","null","153","stimuli/bar_55.jpg","","","","",""
"","","","","","image-keyboard-response","179","2.0.0","182585","pr5oady3g9p","shark","null","stimuli/stream_24.jpg","null","stream","E","non-repeat","null","154","stimuli/stream_24.jpg","","","","",""
"","","","","","image-keyboard-response","180","2.0.0","183602","pr5oady3g9p","shark","null","stimuli/field_26.jpg","null","field","F","non-repeat","null","155","stimuli/field_26.jpg","","","","",""
"","","","","","image-keyboard-response","181","2.0.0","184615","pr5oady3g9p","shark","null","stimuli/playground_2.jpg","null","playground","G","non-repeat","null","156","stimuli/playground_2.jpg","","","","",""
"","","","","","image-keyboard-response","182","2.0.0","185624","pr5oady3g9p","shark","544","stimuli/playground_2.jpg"," ","playground","G","repeat"," ","156","","","","","",""
"","","","","","image-keyboard-response","183","2.0.0","186628","pr5oady3g9p","shark","null","stimuli/coast_64.jpg","null","coast","H","non-repeat","null","157","stimuli/coast_64.jpg","","","","",""
"","","","","","image-keyboard-response","184","2.0.0","187630","pr5oady3g9p","shark","null","stimuli/gym_10.jpg","null","gym","I","non-repeat","null","158","stimuli/gym_10.jpg","","","","",""
"","","","","","image-keyboard-response","185","2.0.0","188639","pr5oady3g9p","shark","null","stimuli/bridge_36.jpg","null","bridge","J","non-repeat","null","159","stimuli/bridge_36.jpg","","","","",""
"","","","","","image-keyboard-response","186","2.0.0","189653","pr5oady3g9p","shark","null","stimuli/woods_64.jpg","null","woods","K","non-repeat","null","160","stimuli/woods_64.jpg","","","","",""
"","","","","","image-keyboard-response","187","2.0.0","190655","pr5oady3g9p","shark","null","stimuli/kitchen_30.jpg","null","kitchen","L","non-repeat","null","161","stimuli/kitchen_30.jpg","","","","",""
"","","","","","image-keyboard-response","188","2.0.0","191662","pr5oady3g9p","shark","645","stimuli/kitchen_30.jpg"," ","kitchen","L","repeat"," ","161","","","","","",""
"","","","","","image-keyboard-response","189","2.0.0","192671","pr5oady3g9p","shark","null","stimuli/bar_55.jpg","null","bar","D","non-repeat","null","162","stimuli/bar_55.jpg","","","","",""
"","","","","","image-keyboard-response","190","2.0.0","193674","pr5oady3g9p","shark","401","stimuli/bar_55.jpg"," ","bar","D","repeat"," ","162","","","","","",""
"","","","","","image-keyboard-response","191","2.0.0","194677","pr5oady3g9p","shark","null","stimuli/stream_24.jpg","null","stream","E","non-repeat","null","163","stimuli/stream_24.jpg","","","","",""
"","","","","","image-keyboard-response","192","2.0.0","195685","pr5oady3g9p","shark","null","stimuli/field_26.jpg","null","field","F","non-repeat","null","164","stimuli/field_26.jpg","","","","",""
"","","","","","image-keyboard-response","193","2.0.0","196699","pr5oady3g9p","shark","null","stimuli/playground_2.jpg","null","playground","G","non-repeat","null","165","stimuli/playground_2.jpg","","","","",""
"","","","","","image-keyboard-response","194","2.0.0","197712","pr5oady3g9p","shark","645","stimuli/playground_2.jpg"," ","playground","G","repeat"," ","165","","","","","",""
"","","","","","image-keyboard-response","195","2.0.0","198728","pr5oady3g9p","shark","null","stimuli/coast_64.jpg","null","coast","H","non-repeat","null","166","stimuli/coast_64.jpg","","","","",""
"","","","","","image-keyboard-response","196","2.0.0","199738","pr5oady3g9p","shark","null","stimuli/gym_10.jpg","null","gym","I","non-repeat","null","167","stimuli/gym_10.jpg","","","","",""
"","","","","","image-keyboard-response","197","2.0.0","200747","pr5oady3g9p","shark","null","stimuli/bar_55.jpg","null","bar","D","non-repeat","null","168","stimuli/bar_55.jpg","","","","",""
"","","","","","image-keyboard-response","198","2.0.0","201753","pr5oady3g9p","shark","null","stimuli/stream_24.jpg","null","stream","E","non-repeat","null","169","stimuli/stream_24.jpg","","","","",""
"","","","","","image-keyboard-response","199","2.0.0","202756","pr5oady3g9p","shark","null","stimuli/field_26.jpg","null","field","F","non-repeat","null","170","stimuli/field_26.jpg","","","","",""
"","","","","","image-keyboard-response","200","2.0.0","203767","pr5oady3g9p","shark","null","stimuli/playground_2.jpg","null","playground","G","non-repeat","null","171","stimuli/playground_2.jpg","","","","",""
"","","","","","image-keyboard-response","201","2.0.0","204779","pr5oady3g9p","shark","null","stimuli/coast_64.jpg","null","coast","H","non-repeat","null","172","stimuli/coast_64.jpg","","","","",""
"","","","","","image-keyboard-response","202","2.0.0","205788","pr5oady3g9p","shark","null","stimuli/gym_10.jpg","null","gym","I","non-repeat","null","173","stimuli/gym_10.jpg","","","","",""
"","","","","","image-keyboard-response","203","2.0.0","206795","pr5oady3g9p","shark","null","stimuli/bar_55.jpg","null","bar","D","non-repeat","null","174","stimuli/bar_55.jpg","","","","",""
"","","","","","image-keyboard-response","204","2.0.0","207798","pr5oady3g9p","shark","null","stimuli/stream_24.jpg","null","stream","E","non-repeat","null","175","stimuli/stream_24.jpg","","","","",""
"","","","","","image-keyboard-response","205","2.0.0","208806","pr5oady3g9p","shark","null","stimuli/field_26.jpg","null","field","F","non-repeat","null","176","stimuli/field_26.jpg","","","","",""
"","","","","","image-keyboard-response","206","2.0.0","209812","pr5oady3g9p","shark","null","stimuli/bridge_36.jpg","null","bridge","J","non-repeat","null","177","stimuli/bridge_36.jpg","","","","",""
"","","","","","image-keyboard-response","207","2.0.0","210828","pr5oady3g9p","shark","null","stimuli/woods_64.jpg","null","woods","K","non-repeat","null","178","stimuli/woods_64.jpg","","","","",""
"","","","","","image-keyboard-response","208","2.0.0","211839","pr5oady3g9p","shark","null","stimuli/kitchen_30.jpg","null","kitchen","L","non-repeat","null","179","stimuli/kitchen_30.jpg","","","","",""
"","","","","","image-keyboard-response","209","2.0.0","212855","pr5oady3g9p","shark","null","stimuli/street_14.jpg","null","street","A","non-repeat","null","180","stimuli/street_14.jpg","","","","",""
"","","","","","image-keyboard-response","210","2.0.0","213861","pr5oady3g9p","shark","438","stimuli/street_14.jpg"," ","street","A","repeat"," ","180","","","","","",""
"","","","","","image-keyboard-response","211","2.0.0","214876","pr5oady3g9p","shark","null","stimuli/bathroom_6.jpg","null","bathroom","B","non-repeat","null","181","stimuli/bathroom_6.jpg","","","","",""
"","","","","","image-keyboard-response","212","2.0.0","215891","pr5oady3g9p","shark","null","stimuli/desert_17.jpg","null","desert","C","non-repeat","null","182","stimuli/desert_17.jpg","","","","",""
"","","","","","image-keyboard-response","213","2.0.0","216901","pr5oady3g9p","shark","null","stimuli/bar_55.jpg","null","bar","D","non-repeat","null","183","stimuli/bar_55.jpg","","","","",""
"","","","","","image-keyboard-response","214","2.0.0","217906","pr5oady3g9p","shark","null","stimuli/bar_55.jpg","null","bar","D","repeat"," ","183","","","","","",""
"","","","","","image-keyboard-response","215","2.0.0","218920","pr5oady3g9p","shark","null","stimuli/stream_24.jpg","null","stream","E","non-repeat","null","184","stimuli/stream_24.jpg","","","","",""
"","","","","","image-keyboard-response","216","2.0.0","219935","pr5oady3g9p","shark","null","stimuli/field_26.jpg","null","field","F","non-repeat","null","185","stimuli/field_26.jpg","","","","",""
"","","","","","image-keyboard-response","217","2.0.0","220943","pr5oady3g9p","shark","null","stimuli/playground_2.jpg","null","playground","G","non-repeat","null","186","stimuli/playground_2.jpg","","","","",""
"","","","","","image-keyboard-response","218","2.0.0","221946","pr5oady3g9p","shark","null","stimuli/coast_64.jpg","null","coast","H","non-repeat","null","187","stimuli/coast_64.jpg","","","","",""
"","","","","","image-keyboard-response","219","2.0.0","222956","pr5oady3g9p","shark","null","stimuli/gym_10.jpg","null","gym","I","non-repeat","null","188","stimuli/gym_10.jpg","","","","",""
"","","","","","image-keyboard-response","220","2.0.0","223963","pr5oady3g9p","shark","null","stimuli/bar_55.jpg","null","bar","D","non-repeat","null","189","stimuli/bar_55.jpg","","","","",""
"","","","","","image-keyboard-response","221","2.0.0","224969","pr5oady3g9p","shark","null","stimuli/stream_24.jpg","null","stream","E","non-repeat","null","190","stimuli/stream_24.jpg","","","","",""
"","","","","","image-keyboard-response","222","2.0.0","225982","pr5oady3g9p","shark","null","stimuli/field_26.jpg","null","field","F","non-repeat","null","191","stimuli/field_26.jpg","","","","",""
"","","","","","image-keyboard-response","223","2.0.0","226998","pr5oady3g9p","shark","null","stimuli/playground_2.jpg","null","playground","G","non-repeat","null","192","stimuli/playground_2.jpg","","","","",""
"","","","","","image-keyboard-response","224","2.0.0","228013","pr5oady3g9p","shark","null","stimuli/coast_64.jpg","null","coast","H","non-repeat","null","193","stimuli/coast_64.jpg","","","","",""
"","","","","","image-keyboard-response","225","2.0.0","229018","pr5oady3g9p","shark","null","stimuli/gym_10.jpg","null","gym","I","non-repeat","null","194","stimuli/gym_10.jpg","","","","",""
"","","","","","image-keyboard-response","226","2.0.0","230027","pr5oady3g9p","shark","461","stimuli/gym_10.jpg"," ","gym","I","repeat"," ","194","","","","","",""
"","","","","","image-keyboard-response","227","2.0.0","231042","pr5oady3g9p","shark","null","stimuli/bar_55.jpg","null","bar","D","non-repeat","null","195","stimuli/bar_55.jpg","","","","",""
"","","","","","image-keyboard-response","228","2.0.0","232046","pr5oady3g9p","shark","null","stimuli/stream_24.jpg","null","stream","E","non-repeat","null","196","stimuli/stream_24.jpg","","","","",""
"","","","","","image-keyboard-response","229","2.0.0","233061","pr5oady3g9p","shark","null","stimuli/field_26.jpg","null","field","F","non-repeat","null","197","stimuli/field_26.jpg","","","","",""
"","","","","","image-keyboard-response","230","2.0.0","234067","pr5oady3g9p","shark","420","stimuli/field_26.jpg"," ","field","F","repeat"," ","197","","","","","",""
"","","","","","image-keyboard-response","231","2.0.0","235075","pr5oady3g9p","shark","null","stimuli/bridge_36.jpg","null","bridge","J","non-repeat","null","198","stimuli/bridge_36.jpg","","","","",""
"","","","","","image-keyboard-response","232","2.0.0","236077","pr5oady3g9p","shark","null","stimuli/woods_64.jpg","null","woods","K","non-repeat","null","199","stimuli/woods_64.jpg","","","","",""
"","","","","","image-keyboard-response","233","2.0.0","237087","pr5oady3g9p","shark","null","stimuli/kitchen_30.jpg","null","kitchen","L","non-repeat","null","200","stimuli/kitchen_30.jpg","","","","",""
"","","","","","image-keyboard-response","234","2.0.0","238098","pr5oady3g9p","shark","null","stimuli/street_14.jpg","null","street","A","non-repeat","null","201","stimuli/street_14.jpg","","","","",""
"","","","","","image-keyboard-response","235","2.0.0","239100","pr5oady3g9p","shark","null","stimuli/bathroom_6.jpg","null","bathroom","B","non-repeat","null","202","stimuli/bathroom_6.jpg","","","","",""
"","","","","","image-keyboard-response","236","2.0.0","240111","pr5oady3g9p","shark","null","stimuli/desert_17.jpg","null","desert","C","non-repeat","null","203","stimuli/desert_17.jpg","","","","",""
"","","","","","image-keyboard-response","237","2.0.0","241115","pr5oady3g9p","shark","452","stimuli/desert_17.jpg"," ","desert","C","repeat"," ","203","","","","","",""
"","","","","","image-keyboard-response","238","2.0.0","242131","pr5oady3g9p","shark","null","stimuli/bridge_36.jpg","null","bridge","J","non-repeat","null","204","stimuli/bridge_36.jpg","","","","",""
"","","","","","image-keyboard-response","239","2.0.0","243134","pr5oady3g9p","shark","432","stimuli/bridge_36.jpg"," ","bridge","J","repeat"," ","204","","","","","",""
"","","","","","image-keyboard-response","240","2.0.0","244150","pr5oady3g9p","shark","null","stimuli/woods_64.jpg","null","woods","K","non-repeat","null","205","stimuli/woods_64.jpg","","","","",""
"","","","","","image-keyboard-response","241","2.0.0","245158","pr5oady3g9p","shark","null","stimuli/kitchen_30.jpg","null","kitchen","L","non-repeat","null","206","stimuli/kitchen_30.jpg","","","","",""
"","","","","","image-keyboard-response","242","2.0.0","246167","pr5oady3g9p","shark","null","stimuli/playground_2.jpg","null","playground","G","non-repeat","null","207","stimuli/playground_2.jpg","","","","",""
"","","","","","image-keyboard-response","243","2.0.0","247173","pr5oady3g9p","shark","null","stimuli/coast_64.jpg","null","coast","H","non-repeat","null","208","stimuli/coast_64.jpg","","","","",""
"","","","","","image-keyboard-response","244","2.0.0","248179","pr5oady3g9p","shark","null","stimuli/gym_10.jpg","null","gym","I","non-repeat","null","209","stimuli/gym_10.jpg","","","","",""
"","","","","","image-keyboard-response","245","2.0.0","249182","pr5oady3g9p","shark","489","stimuli/gym_10.jpg"," ","gym","I","repeat"," ","209","","","","","",""
"","","","","","image-keyboard-response","246","2.0.0","250197","pr5oady3g9p","shark","null","stimuli/bridge_36.jpg","null","bridge","J","non-repeat","null","210","stimuli/bridge_36.jpg","","","","",""
"","","","","","image-keyboard-response","247","2.0.0","251211","pr5oady3g9p","shark","null","stimuli/woods_64.jpg","null","woods","K","non-repeat","null","211","stimuli/woods_64.jpg","","","","",""
"","","","","","image-keyboard-response","248","2.0.0","252217","pr5oady3g9p","shark","null","stimuli/kitchen_30.jpg","null","kitchen","L","non-repeat","null","212","stimuli/kitchen_30.jpg","","","","",""
"","","","","","image-keyboard-response","249","2.0.0","253229","pr5oady3g9p","shark","null","stimuli/bar_55.jpg","null","bar","D","non-repeat","null","213","stimuli/bar_55.jpg","","","","",""
"","","","","","image-keyboard-response","250","2.0.0","254236","pr5oady3g9p","shark","null","stimuli/stream_24.jpg","null","stream","E","non-repeat","null","214","stimuli/stream_24.jpg","","","","",""
"","","","","","image-keyboard-response","251","2.0.0","255252","pr5oady3g9p","shark","null","stimuli/field_26.jpg","null","field","F","non-repeat","null","215","stimuli/field_26.jpg","","","","",""
"","","","","","image-keyboard-response","252","2.0.0","256266","pr5oady3g9p","shark","null","stimuli/street_14.jpg","null","street","A","non-repeat","null","216","stimuli/street_14.jpg","","","","",""
"","","","","","image-keyboard-response","253","2.0.0","257273","pr5oady3g9p","shark","null","stimuli/bathroom_6.jpg","null","bathroom","B","non-repeat","null","217","stimuli/bathroom_6.jpg","","","","",""
"","","","","","image-keyboard-response","254","2.0.0","258277","pr5oady3g9p","shark","null","stimuli/desert_17.jpg","null","desert","C","non-repeat","null","218","stimuli/desert_17.jpg","","","","",""
"","","","","","image-keyboard-response","255","2.0.0","259292","pr5oady3g9p","shark","null","stimuli/bar_55.jpg","null","bar","D","non-repeat","null","219","stimuli/bar_55.jpg","","","","",""
"","","","","","image-keyboard-response","256","2.0.0","260304","pr5oady3g9p","shark","563","stimuli/bar_55.jpg"," ","bar","D","repeat"," ","219","","","","","",""
"","","","","","image-keyboard-response","257","2.0.0","261319","pr5oady3g9p","shark","null","stimuli/stream_24.jpg","null","stream","E","non-repeat","null","220","stimuli/stream_24.jpg","","","","",""
"","","","","","image-keyboard-response","258","2.0.0","262326","pr5oady3g9p","shark","null","stimuli/field_26.jpg","null","field","F","non-repeat","null","221","stimuli/field_26.jpg","","","","",""
"","","","","","image-keyboard-response","259","2.0.0","263335","pr5oady3g9p","shark","null","stimuli/bridge_36.jpg","null","bridge","J","non-repeat","null","222","stimuli/bridge_36.jpg","","","","",""
"","","","","","image-keyboard-response","260","2.0.0","264340","pr5oady3g9p","shark","null","stimuli/woods_64.jpg","null","woods","K","non-repeat","null","223","stimuli/woods_64.jpg","","","","",""
"","","","","","image-keyboard-response","261","2.0.0","265344","pr5oady3g9p","shark","null","stimuli/kitchen_30.jpg","null","kitchen","L","non-repeat","null","224","stimuli/kitchen_30.jpg","","","","",""
"","","","","","image-keyboard-response","262","2.0.0","266359","pr5oady3g9p","shark","null","stimuli/playground_2.jpg","null","playground","G","non-repeat","null","225","stimuli/playground_2.jpg","","","","",""
"","","","","","image-keyboard-response","263","2.0.0","267362","pr5oady3g9p","shark","null","stimuli/coast_64.jpg","null","coast","H","non-repeat","null","226","stimuli/coast_64.jpg","","","","",""
"","","","","","image-keyboard-response","264","2.0.0","268375","pr5oady3g9p","shark","null","stimuli/gym_10.jpg","null","gym","I","non-repeat","null","227","stimuli/gym_10.jpg","","","","",""
"","","","","","image-keyboard-response","265","2.0.0","269389","pr5oady3g9p","shark","null","stimuli/bridge_36.jpg","null","bridge","J","non-repeat","null","228","stimuli/bridge_36.jpg","","","","",""
"","","","","","image-keyboard-response","266","2.0.0","270400","pr5oady3g9p","shark","491","stimuli/bridge_36.jpg"," ","bridge","J","repeat"," ","228","","","","","",""
"","","","","","image-keyboard-response","267","2.0.0","271406","pr5oady3g9p","shark","null","stimuli/woods_64.jpg","null","woods","K","non-repeat","null","229","stimuli/woods_64.jpg","","","","",""
"","","","","","image-keyboard-response","268","2.0.0","272412","pr5oady3g9p","shark","null","stimuli/kitchen_30.jpg","null","kitchen","L","non-repeat","null","230","stimuli/kitchen_30.jpg","","","","",""
"","","","","","image-keyboard-response","269","2.0.0","273417","pr5oady3g9p","shark","513","stimuli/kitchen_30.jpg"," ","kitchen","L","repeat"," ","230","","","","","",""
"","","","","","image-keyboard-response","270","2.0.0","274420","pr5oady3g9p","shark","null","stimuli/bar_55.jpg","null","bar","D","non-repeat","null","231","stimuli/bar_55.jpg","","","","",""
"","","","","","image-keyboard-response","271","2.0.0","275431","pr5oady3g9p","shark","null","stimuli/stream_24.jpg","null","stream","E","non-repeat","null","232","stimuli/stream_24.jpg","","","","",""
"","","","","","image-keyboard-response","272","2.0.0","276447","pr5oady3g9p","shark","null","stimuli/field_26.jpg","null","field","F","non-repeat","null","233","stimuli/field_26.jpg","","","","",""
"","","","","","image-keyboard-response","273","2.0.0","277461","pr5oady3g9p","shark","421","stimuli/field_26.jpg"," ","field","F","repeat"," ","233","","","","","",""
"","","","","","image-keyboard-response","274","2.0.0","278466","pr5oady3g9p","shark","null","stimuli/playground_2.jpg","null","playground","G","non-repeat","null","234","stimuli/playground_2.jpg","","","","",""
"","","","","","image-keyboard-response","275","2.0.0","279470","pr5oady3g9p","shark","517","stimuli/playground_2.jpg"," ","playground","G","repeat"," ","234","","","","","",""
"","","","","","image-keyboard-response","276","2.0.0","280480","pr5oady3g9p","shark","null","stimuli/coast_64.jpg","null","coast","H","non-repeat","null","235","stimuli/coast_64.jpg","","","","",""
"","","","","","image-keyboard-response","277","2.0.0","281483","pr5oady3g9p","shark","null","stimuli/gym_10.jpg","null","gym","I","non-repeat","null","236","stimuli/gym_10.jpg","","","","",""
"","","","","","image-keyboard-response","278","2.0.0","282494","pr5oady3g9p","shark","null","stimuli/bridge_36.jpg","null","bridge","J","non-repeat","null","237","stimuli/bridge_36.jpg","","","","",""
"","","","","","image-keyboard-response","279","2.0.0","283500","pr5oady3g9p","shark","null","stimuli/woods_64.jpg","null","woods","K","non-repeat","null","238","stimuli/woods_64.jpg","","","","",""
"","","","","","image-keyboard-response","280","2.0.0","284511","pr5oady3g9p","shark","null","stimuli/kitchen_30.jpg","null","kitchen","L","non-repeat","null","239","stimuli/kitchen_30.jpg","","","","",""
"","","","","","image-keyboard-response","281","2.0.0","285524","pr5oady3g9p","shark","504","stimuli/bar_55.jpg"," ","bar","D","non-repeat","null","240","stimuli/bar_55.jpg","","","","",""
"","","","","","image-keyboard-response","282","2.0.0","286540","pr5oady3g9p","shark","null","stimuli/stream_24.jpg","null","stream","E","non-repeat","null","241","stimuli/stream_24.jpg","","","","",""
"","","","","","image-keyboard-response","283","2.0.0","287542","pr5oady3g9p","shark","null","stimuli/field_26.jpg","null","field","F","non-repeat","null","242","stimuli/field_26.jpg","","","","",""
"","","","","","image-keyboard-response","284","2.0.0","288550","pr5oady3g9p","shark","null","stimuli/bridge_36.jpg","null","bridge","J","non-repeat","null","243","stimuli/bridge_36.jpg","","","","",""
"","","","","","image-keyboard-response","285","2.0.0","289554","pr5oady3g9p","shark","null","stimuli/bridge_36.jpg","null","bridge","J","repeat"," ","243","","","","","",""
"","","","","","image-keyboard-response","286","2.0.0","290568","pr5oady3g9p","shark","null","stimuli/woods_64.jpg","null","woods","K","non-repeat","null","244","stimuli/woods_64.jpg","","","","",""
"","","","","","image-keyboard-response","287","2.0.0","291579","pr5oady3g9p","shark","null","stimuli/kitchen_30.jpg","null","kitchen","L","non-repeat","null","245","stimuli/kitchen_30.jpg","","","","",""
"","","","","","image-keyboard-response","288","2.0.0","292584","pr5oady3g9p","shark","null","stimuli/bar_55.jpg","null","bar","D","non-repeat","null","246","stimuli/bar_55.jpg","","","","",""
"","","","","","image-keyboard-response","289","2.0.0","293587","pr5oady3g9p","shark","null","stimuli/stream_24.jpg","null","stream","E","non-repeat","null","247","stimuli/stream_24.jpg","","","","",""
"","","","","","image-keyboard-response","290","2.0.0","294602","pr5oady3g9p","shark","null","stimuli/field_26.jpg","null","field","F","non-repeat","null","248","stimuli/field_26.jpg","","","","",""
"","","","","","image-keyboard-response","291","2.0.0","295615","pr5oady3g9p","shark","null","stimuli/bridge_36.jpg","null","bridge","J","non-repeat","null","249","stimuli/bridge_36.jpg","","","","",""
"","","","","","image-keyboard-response","292","2.0.0","296630","pr5oady3g9p","shark","null","stimuli/woods_64.jpg","null","woods","K","non-repeat","null","250","stimuli/woods_64.jpg","","","","",""
"","","","","","image-keyboard-response","293","2.0.0","297644","pr5oady3g9p","shark","null","stimuli/kitchen_30.jpg","null","kitchen","L","non-repeat","null","251","stimuli/kitchen_30.jpg","","","","",""
"","","","","","image-keyboard-response","294","2.0.0","298649","pr5oady3g9p","shark","null","stimuli/street_14.jpg","null","street","A","non-repeat","null","252","stimuli/street_14.jpg","","","","",""
"","","","","","image-keyboard-response","295","2.0.0","299654","pr5oady3g9p","shark","null","stimuli/bathroom_6.jpg","null","bathroom","B","non-repeat","null","253","stimuli/bathroom_6.jpg","","","","",""
"","","","","","image-keyboard-response","296","2.0.0","300655","pr5oady3g9p","shark","null","stimuli/desert_17.jpg","null","desert","C","non-repeat","null","254","stimuli/desert_17.jpg","","","","",""
"","","","","","image-keyboard-response","297","2.0.0","301659","pr5oady3g9p","shark","null","stimuli/bridge_36.jpg","null","bridge","J","non-repeat","null","255","stimuli/bridge_36.jpg","","","","",""
"","","","","","image-keyboard-response","298","2.0.0","302675","pr5oady3g9p","shark","547","stimuli/bridge_36.jpg"," ","bridge","J","repeat"," ","255","","","","","",""
"","","","","","image-keyboard-response","299","2.0.0","303690","pr5oady3g9p","shark","null","stimuli/woods_64.jpg","null","woods","K","non-repeat","null","256","stimuli/woods_64.jpg","","","","",""
"","","","","","image-keyboard-response","300","2.0.0","304695","pr5oady3g9p","shark","null","stimuli/kitchen_30.jpg","null","kitchen","L","non-repeat","null","257","stimuli/kitchen_30.jpg","","","","",""
"","","","","","image-keyboard-response","301","2.0.0","305700","pr5oady3g9p","shark","null","stimuli/street_14.jpg","null","street","A","non-repeat","null","258","stimuli/street_14.jpg","","","","",""
"","","","","","image-keyboard-response","302","2.0.0","306704","pr5oady3g9p","shark","null","stimuli/bathroom_6.jpg","null","bathroom","B","non-repeat","null","259","stimuli/bathroom_6.jpg","","","","",""
"","","","","","image-keyboard-response","303","2.0.0","307720","pr5oady3g9p","shark","null","stimuli/desert_17.jpg","null","desert","C","non-repeat","null","260","stimuli/desert_17.jpg","","","","",""
"","","","","","image-keyboard-response","304","2.0.0","308734","pr5oady3g9p","shark","null","stimuli/playground_2.jpg","null","playground","G","non-repeat","null","261","stimuli/playground_2.jpg","","","","",""
"","","","","","image-keyboard-response","305","2.0.0","309746","pr5oady3g9p","shark","null","stimuli/coast_64.jpg","null","coast","H","non-repeat","null","262","stimuli/coast_64.jpg","","","","",""
"","","","","","image-keyboard-response","306","2.0.0","310755","pr5oady3g9p","shark","null","stimuli/gym_10.jpg","null","gym","I","non-repeat","null","263","stimuli/gym_10.jpg","","","","",""
"","","","","","image-keyboard-response","307","2.0.0","311759","pr5oady3g9p","shark","null","stimuli/street_14.jpg","null","street","A","non-repeat","null","264","stimuli/street_14.jpg","","","","",""
"","","","","","image-keyboard-response","308","2.0.0","312768","pr5oady3g9p","shark","null","stimuli/bathroom_6.jpg","null","bathroom","B","non-repeat","null","265","stimuli/bathroom_6.jpg","","","","",""
"","","","","","image-keyboard-response","309","2.0.0","313775","pr5oady3g9p","shark","null","stimuli/desert_17.jpg","null","desert","C","non-repeat","null","266","stimuli/desert_17.jpg","","","","",""
"","","","","","image-keyboard-response","310","2.0.0","314789","pr5oady3g9p","shark","null","stimuli/bridge_36.jpg","null","bridge","J","non-repeat","null","267","stimuli/bridge_36.jpg","","","","",""
"","","","","","image-keyboard-response","311","2.0.0","315792","pr5oady3g9p","shark","null","stimuli/woods_64.jpg","null","woods","K","non-repeat","null","268","stimuli/woods_64.jpg","","","","",""
"","","","","","image-keyboard-response","312","2.0.0","316798","pr5oady3g9p","shark","null","stimuli/kitchen_30.jpg","null","kitchen","L","non-repeat","null","269","stimuli/kitchen_30.jpg","","","","",""
"","","","","","image-keyboard-response","313","2.0.0","317813","pr5oady3g9p","shark","null","stimuli/street_14.jpg","null","street","A","non-repeat","null","270","stimuli/street_14.jpg","","","","",""
"","","","","","image-keyboard-response","314","2.0.0","318827","pr5oady3g9p","shark","null","stimuli/bathroom_6.jpg","null","bathroom","B","non-repeat","null","271","stimuli/bathroom_6.jpg","","","","",""
"","","","","","image-keyboard-response","315","2.0.0","319829","pr5oady3g9p","shark","null","stimuli/desert_17.jpg","null","desert","C","non-repeat","null","272","stimuli/desert_17.jpg","","","","",""
"","","","","","image-keyboard-response","316","2.0.0","320840","pr5oady3g9p","shark","404","stimuli/desert_17.jpg"," ","desert","C","repeat"," ","272","","","","","",""
"","","","","","image-keyboard-response","317","2.0.0","321846","pr5oady3g9p","shark","null","stimuli/bridge_36.jpg","null","bridge","J","non-repeat","null","273","stimuli/bridge_36.jpg","","","","",""
"","","","","","image-keyboard-response","318","2.0.0","322858","pr5oady3g9p","shark","null","stimuli/woods_64.jpg","null","woods","K","non-repeat","null","274","stimuli/woods_64.jpg","","","","",""
"","","","","","image-keyboard-response","319","2.0.0","323863","pr5oady3g9p","shark","null","stimuli/kitchen_30.jpg","null","kitchen","L","non-repeat","null","275","stimuli/kitchen_30.jpg","","","","",""
"","","","","","image-keyboard-response","320","2.0.0","324867","pr5oady3g9p","shark","null","stimuli/bar_55.jpg","null","bar","D","non-repeat","null","276","stimuli/bar_55.jpg","","","","",""
"","","","","","image-keyboard-response","321","2.0.0","325870","pr5oady3g9p","shark","null","stimuli/stream_24.jpg","null","stream","E","non-repeat","null","277","stimuli/stream_24.jpg","","","","",""
"","","","","","image-keyboard-response","322","2.0.0","326885","pr5oady3g9p","shark","null","stimuli/field_26.jpg","null","field","F","non-repeat","null","278","stimuli/field_26.jpg","","","","",""
"","","","","","image-keyboard-response","323","2.0.0","327901","pr5oady3g9p","shark","null","stimuli/playground_2.jpg","null","playground","G","non-repeat","null","279","stimuli/playground_2.jpg","","","","",""
"","","","","","image-keyboard-response","324","2.0.0","328905","pr5oady3g9p","shark","null","stimuli/coast_64.jpg","null","coast","H","non-repeat","null","280","stimuli/coast_64.jpg","","","","",""
"","","","","","image-keyboard-response","325","2.0.0","329908","pr5oady3g9p","shark","null","stimuli/gym_10.jpg","null","gym","I","non-repeat","null","281","stimuli/gym_10.jpg","","","","",""
"","","","","","image-keyboard-response","326","2.0.0","330926","pr5oady3g9p","shark","558","stimuli/gym_10.jpg"," ","gym","I","repeat"," ","281","","","","","",""
"","","","","","image-keyboard-response","327","2.0.0","331928","pr5oady3g9p","shark","null","stimuli/bridge_36.jpg","null","bridge","J","non-repeat","null","282","stimuli/bridge_36.jpg","","","","",""
"","","","","","image-keyboard-response","328","2.0.0","332939","pr5oady3g9p","shark","null","stimuli/woods_64.jpg","null","woods","K","non-repeat","null","283","stimuli/woods_64.jpg","","","","",""
"","","","","","image-keyboard-response","329","2.0.0","333944","pr5oady3g9p","shark","null","stimuli/kitchen_30.jpg","null","kitchen","L","non-repeat","null","284","stimuli/kitchen_30.jpg","","","","",""
"","","","","","image-keyboard-response","330","2.0.0","334947","pr5oady3g9p","shark","null","stimuli/street_14.jpg","null","street","A","non-repeat","null","285","stimuli/street_14.jpg","","","","",""
"","","","","","image-keyboard-response","331","2.0.0","335951","pr5oady3g9p","shark","null","stimuli/bathroom_6.jpg","null","bathroom","B","non-repeat","null","286","stimuli/bathroom_6.jpg","","","","",""
"","","","","","image-keyboard-response","332","2.0.0","336958","pr5oady3g9p","shark","null","stimuli/desert_17.jpg","null","desert","C","non-repeat","null","287","stimuli/desert_17.jpg","","","","",""
"","","","","","image-keyboard-response","333","2.0.0","337964","pr5oady3g9p","shark","null","stimuli/bridge_36.jpg","null","bridge","J","non-repeat","null","288","stimuli/bridge_36.jpg","","","","",""
"","","","","","image-keyboard-response","334","2.0.0","338981","pr5oady3g9p","shark","null","stimuli/woods_64.jpg","null","woods","K","non-repeat","null","289","stimuli/woods_64.jpg","","","","",""
"","","","","","image-keyboard-response","335","2.0.0","339989","pr5oady3g9p","shark","null","stimuli/kitchen_30.jpg","null","kitchen","L","non-repeat","null","290","stimuli/kitchen_30.jpg","","","","",""
"","","","","","image-keyboard-response","336","2.0.0","340992","pr5oady3g9p","shark","null","stimuli/playground_2.jpg","null","playground","G","non-repeat","null","291","stimuli/playground_2.jpg","","","","",""
"","","","","","image-keyboard-response","337","2.0.0","342001","pr5oady3g9p","shark","null","stimuli/coast_64.jpg","null","coast","H","non-repeat","null","292","stimuli/coast_64.jpg","","","","",""
"","","","","","image-keyboard-response","338","2.0.0","343006","pr5oady3g9p","shark","null","stimuli/gym_10.jpg","null","gym","I","non-repeat","null","293","stimuli/gym_10.jpg","","","","",""
"","","","","","image-keyboard-response","339","2.0.0","344009","pr5oady3g9p","shark","null","stimuli/bar_55.jpg","null","bar","D","non-repeat","null","294","stimuli/bar_55.jpg","","","","",""
"","","","","","image-keyboard-response","340","2.0.0","345014","pr5oady3g9p","shark","582","stimuli/bar_55.jpg"," ","bar","D","repeat"," ","294","","","","","",""
"","","","","","image-keyboard-response","341","2.0.0","346019","pr5oady3g9p","shark","null","stimuli/stream_24.jpg","null","stream","E","non-repeat","null","295","stimuli/stream_24.jpg","","","","",""
"","","","","","image-keyboard-response","342","2.0.0","347032","pr5oady3g9p","shark","null","stimuli/field_26.jpg","null","field","F","non-repeat","null","296","stimuli/field_26.jpg","","","","",""
"","","","","","image-keyboard-response","343","2.0.0","348045","pr5oady3g9p","shark","null","stimuli/street_14.jpg","null","street","A","non-repeat","null","297","stimuli/street_14.jpg","","","","",""
"","","","","","image-keyboard-response","344","2.0.0","349062","pr5oady3g9p","shark","null","stimuli/bathroom_6.jpg","null","bathroom","B","non-repeat","null","298","stimuli/bathroom_6.jpg","","","","",""
"","","","","","image-keyboard-response","345","2.0.0","350066","pr5oady3g9p","shark","null","stimuli/desert_17.jpg","null","desert","C","non-repeat","null","299","stimuli/desert_17.jpg","","","","",""
"","","","","","image-keyboard-response","346","2.0.0","351079","pr5oady3g9p","shark","null","stimuli/playground_2.jpg","null","playground","G","non-repeat","null","300","stimuli/playground_2.jpg","","","","",""
"","","","","","image-keyboard-response","347","2.0.0","352095","pr5oady3g9p","shark","null","stimuli/coast_64.jpg","null","coast","H","non-repeat","null","301","stimuli/coast_64.jpg","","","","",""
"","","","","","image-keyboard-response","348","2.0.0","353107","pr5oady3g9p","shark","null","stimuli/gym_10.jpg","null","gym","I","non-repeat","null","302","stimuli/gym_10.jpg","","","","",""
"","","","","","image-keyboard-response","349","2.0.0","354122","pr5oady3g9p","shark","null","stimuli/bridge_36.jpg","null","bridge","J","non-repeat","null","303","stimuli/bridge_36.jpg","","","","",""
"","","","","","image-keyboard-response","350","2.0.0","355134","pr5oady3g9p","shark","null","stimuli/woods_64.jpg","null","woods","K","non-repeat","null","304","stimuli/woods_64.jpg","","","","",""
"","","","","","image-keyboard-response","351","2.0.0","356141","pr5oady3g9p","shark","null","stimuli/kitchen_30.jpg","null","kitchen","L","non-repeat","null","305","stimuli/kitchen_30.jpg","","","","",""
"","","","","","image-keyboard-response","352","2.0.0","357146","pr5oady3g9p","shark","null","stimuli/street_14.jpg","null","street","A","non-repeat","null","306","stimuli/street_14.jpg","","","","",""
"","","","","","image-keyboard-response","353","2.0.0","358158","pr5oady3g9p","shark","null","stimuli/bathroom_6.jpg","null","bathroom","B","non-repeat","null","307","stimuli/bathroom_6.jpg","","","","",""
"","","","","","image-keyboard-response","354","2.0.0","359160","pr5oady3g9p","shark","null","stimuli/desert_17.jpg","null","desert","C","non-repeat","null","308","stimuli/desert_17.jpg","","","","",""
"","","","","","image-keyboard-response","355","2.0.0","360172","pr5oady3g9p","shark","null","stimuli/bar_55.jpg","null","bar","D","non-repeat","null","309","stimuli/bar_55.jpg","","","","",""
"","","","","","image-keyboard-response","356","2.0.0","361186","pr5oady3g9p","shark","null","stimuli/stream_24.jpg","null","stream","E","non-repeat","null","310","stimuli/stream_24.jpg","","","","",""
"","","","","","image-keyboard-response","357","2.0.0","362191","pr5oady3g9p","shark","null","stimuli/field_26.jpg","null","field","F","non-repeat","null","311","stimuli/field_26.jpg","","","","",""
"","","","","","image-keyboard-response","358","2.0.0","363194","pr5oady3g9p","shark","null","stimuli/street_14.jpg","null","street","A","non-repeat","null","312","stimuli/street_14.jpg","","","","",""
"","","","","","image-keyboard-response","359","2.0.0","364196","pr5oady3g9p","shark","null","stimuli/bathroom_6.jpg","null","bathroom","B","non-repeat","null","313","stimuli/bathroom_6.jpg","","","","",""
"","","","","","image-keyboard-response","360","2.0.0","365209","pr5oady3g9p","shark","null","stimuli/desert_17.jpg","null","desert","C","non-repeat","null","314","stimuli/desert_17.jpg","","","","",""
"","","","","","image-keyboard-response","361","2.0.0","366221","pr5oady3g9p","shark","434","stimuli/desert_17.jpg"," ","desert","C","repeat"," ","314","","","","","",""
"","","","","","image-keyboard-response","362","2.0.0","367238","pr5oady3g9p","shark","null","stimuli/bar_55.jpg","null","bar","D","non-repeat","null","315","stimuli/bar_55.jpg","","","","",""
"","","","","","image-keyboard-response","363","2.0.0","368243","pr5oady3g9p","shark","null","stimuli/stream_24.jpg","null","stream","E","non-repeat","null","316","stimuli/stream_24.jpg","","","","",""
"","","","","","image-keyboard-response","364","2.0.0","369251","pr5oady3g9p","shark","null","stimuli/field_26.jpg","null","field","F","non-repeat","null","317","stimuli/field_26.jpg","","","","",""
"","","","","","image-keyboard-response","365","2.0.0","370255","pr5oady3g9p","shark","null","stimuli/playground_2.jpg","null","playground","G","non-repeat","null","318","stimuli/playground_2.jpg","","","","",""
"","","","","","image-keyboard-response","366","2.0.0","371257","pr5oady3g9p","shark","537","stimuli/playground_2.jpg"," ","playground","G","repeat"," ","318","","","","","",""
"","","","","","image-keyboard-response","367","2.0.0","372259","pr5oady3g9p","shark","null","stimuli/coast_64.jpg","null","coast","H","non-repeat","null","319","stimuli/coast_64.jpg","","","","",""
"","","","","","image-keyboard-response","368","2.0.0","373266","pr5oady3g9p","shark","null","stimuli/gym_10.jpg","null","gym","I","non-repeat","null","320","stimuli/gym_10.jpg","","","","",""
"","","","","","image-keyboard-response","369","2.0.0","374280","pr5oady3g9p","shark","null","stimuli/bridge_36.jpg","null","bridge","J","non-repeat","null","321","stimuli/bridge_36.jpg","","","","",""
"","","","","","image-keyboard-response","370","2.0.0","375290","pr5oady3g9p","shark","null","stimuli/bridge_36.jpg","null","bridge","J","repeat"," ","321","","","","","",""
"","","","","","image-keyboard-response","371","2.0.0","376306","pr5oady3g9p","shark","null","stimuli/woods_64.jpg","null","woods","K","non-repeat","null","322","stimuli/woods_64.jpg","","","","",""
"","","","","","image-keyboard-response","372","2.0.0","377323","pr5oady3g9p","shark","null","stimuli/kitchen_30.jpg","null","kitchen","L","non-repeat","null","323","stimuli/kitchen_30.jpg","","","","",""
"","","","","","image-keyboard-response","373","2.0.0","378338","pr5oady3g9p","shark","425","stimuli/kitchen_30.jpg"," ","kitchen","L","repeat"," ","323","","","","","",""
"","","","","","image-keyboard-response","374","2.0.0","379351","pr5oady3g9p","shark","null","stimuli/street_14.jpg","null","street","A","non-repeat","null","324","stimuli/street_14.jpg","","","","",""
"","","","","","image-keyboard-response","375","2.0.0","380357","pr5oady3g9p","shark","null","stimuli/bathroom_6.jpg","null","bathroom","B","non-repeat","null","325","stimuli/bathroom_6.jpg","","","","",""
"","","","","","image-keyboard-response","376","2.0.0","381369","pr5oady3g9p","shark","null","stimuli/desert_17.jpg","null","desert","C","non-repeat","null","326","stimuli/desert_17.jpg","","","","",""
"","","","","","image-keyboard-response","377","2.0.0","382379","pr5oady3g9p","shark","null","stimuli/bridge_36.jpg","null","bridge","J","non-repeat","null","327","stimuli/bridge_36.jpg","","","","",""
"","","","","","image-keyboard-response","378","2.0.0","383388","pr5oady3g9p","shark","null","stimuli/woods_64.jpg","null","woods","K","non-repeat","null","328","stimuli/woods_64.jpg","","","","",""
"","","","","","image-keyboard-response","379","2.0.0","384391","pr5oady3g9p","shark","null","stimuli/kitchen_30.jpg","null","kitchen","L","non-repeat","null","329","stimuli/kitchen_30.jpg","","","","",""
"","","","","","image-keyboard-response","380","2.0.0","385406","pr5oady3g9p","shark","null","stimuli/playground_2.jpg","null","playground","G","non-repeat","null","330","stimuli/playground_2.jpg","","","","",""
"","","","","","image-keyboard-response","381","2.0.0","386414","pr5oady3g9p","shark","null","stimuli/coast_64.jpg","null","coast","H","non-repeat","null","331","stimuli/coast_64.jpg","","","","",""
"","","","","","image-keyboard-response","382","2.0.0","387428","pr5oady3g9p","shark","null","stimuli/gym_10.jpg","null","gym","I","non-repeat","null","332","stimuli/gym_10.jpg","","","","",""
"","","","","","image-keyboard-response","383","2.0.0","388443","pr5oady3g9p","shark","null","stimuli/bridge_36.jpg","null","bridge","J","non-repeat","null","333","stimuli/bridge_36.jpg","","","","",""
"","","","","","image-keyboard-response","384","2.0.0","389448","pr5oady3g9p","shark","732","stimuli/bridge_36.jpg"," ","bridge","J","repeat"," ","333","","","","","",""
"","","","","","image-keyboard-response","385","2.0.0","390454","pr5oady3g9p","shark","null","stimuli/woods_64.jpg","null","woods","K","non-repeat","null","334","stimuli/woods_64.jpg","","","","",""
"","","","","","image-keyboard-response","386","2.0.0","391460","pr5oady3g9p","shark","null","stimuli/kitchen_30.jpg","null","kitchen","L","non-repeat","null","335","stimuli/kitchen_30.jpg","","","","",""
"","","","","","image-keyboard-response","387","2.0.0","392472","pr5oady3g9p","shark","null","stimuli/playground_2.jpg","null","playground","G","non-repeat","null","336","stimuli/playground_2.jpg","","","","",""
"","","","","","image-keyboard-response","388","2.0.0","393474","pr5oady3g9p","shark","531","stimuli/playground_2.jpg"," ","playground","G","repeat"," ","336","","","","","",""
"","","","","","image-keyboard-response","389","2.0.0","394478","pr5oady3g9p","shark","null","stimuli/coast_64.jpg","null","coast","H","non-repeat","null","337","stimuli/coast_64.jpg","","","","",""
"","","","","","image-keyboard-response","390","2.0.0","395485","pr5oady3g9p","shark","null","stimuli/gym_10.jpg","null","gym","I","non-repeat","null","338","stimuli/gym_10.jpg","","","","",""
"","","","","","image-keyboard-response","391","2.0.0","396495","pr5oady3g9p","shark","null","stimuli/street_14.jpg","null","street","A","non-repeat","null","339","stimuli/street_14.jpg","","","","",""
"","","","","","image-keyboard-response","392","2.0.0","397509","pr5oady3g9p","shark","null","stimuli/bathroom_6.jpg","null","bathroom","B","non-repeat","null","340","stimuli/bathroom_6.jpg","","","","",""
"","","","","","image-keyboard-response","393","2.0.0","398524","pr5oady3g9p","shark","null","stimuli/desert_17.jpg","null","desert","C","non-repeat","null","341","stimuli/desert_17.jpg","","","","",""
"","","","","","image-keyboard-response","394","2.0.0","399537","pr5oady3g9p","shark","null","stimuli/bar_55.jpg","null","bar","D","non-repeat","null","342","stimuli/bar_55.jpg","","","","",""
"","","","","","image-keyboard-response","395","2.0.0","400541","pr5oady3g9p","shark","450","stimuli/bar_55.jpg"," ","bar","D","repeat"," ","342","","","","","",""
"","","","","","image-keyboard-response","396","2.0.0","401554","pr5oady3g9p","shark","null","stimuli/stream_24.jpg","null","stream","E","non-repeat","null","343","stimuli/stream_24.jpg","","","","",""
"","","","","","image-keyboard-response","397","2.0.0","402559","pr5oady3g9p","shark","null","stimuli/field_26.jpg","null","field","F","non-repeat","null","344","stimuli/field_26.jpg","","","","",""
"","","","","","image-keyboard-response","398","2.0.0","403563","pr5oady3g9p","shark","null","stimuli/playground_2.jpg","null","playground","G","non-repeat","null","345","stimuli/playground_2.jpg","","","","",""
"","","","","","image-keyboard-response","399","2.0.0","404581","pr5oady3g9p","shark","null","stimuli/coast_64.jpg","null","coast","H","non-repeat","null","346","stimuli/coast_64.jpg","","","","",""
"","","","","","image-keyboard-response","400","2.0.0","405589","pr5oady3g9p","shark","null","stimuli/gym_10.jpg","null","gym","I","non-repeat","null","347","stimuli/gym_10.jpg","","","","",""
"","","","","","image-keyboard-response","401","2.0.0","406600","pr5oady3g9p","shark","null","stimuli/street_14.jpg","null","street","A","non-repeat","null","348","stimuli/street_14.jpg","","","","",""
"","","","","","image-keyboard-response","402","2.0.0","407607","pr5oady3g9p","shark","null","stimuli/bathroom_6.jpg","null","bathroom","B","non-repeat","null","349","stimuli/bathroom_6.jpg","","","","",""
"","","","","","image-keyboard-response","403","2.0.0","408621","pr5oady3g9p","shark","null","stimuli/desert_17.jpg","null","desert","C","non-repeat","null","350","stimuli/desert_17.jpg","","","","",""
"","","","","","image-keyboard-response","404","2.0.0","409623","pr5oady3g9p","shark","null","stimuli/bar_55.jpg","null","bar","D","non-repeat","null","351","stimuli/bar_55.jpg","","","","",""
"","","","","","image-keyboard-response","405","2.0.0","410631","pr5oady3g9p","shark","null","stimuli/stream_24.jpg","null","stream","E","non-repeat","null","352","stimuli/stream_24.jpg","","","","",""
"","","","","","image-keyboard-response","406","2.0.0","411640","pr5oady3g9p","shark","null","stimuli/field_26.jpg","null","field","F","non-repeat","null","353","stimuli/field_26.jpg","","","","",""
"","","","","","image-keyboard-response","407","2.0.0","412650","pr5oady3g9p","shark","null","stimuli/bridge_36.jpg","null","bridge","J","non-repeat","null","354","stimuli/bridge_36.jpg","","","","",""
"","","","","","image-keyboard-response","408","2.0.0","413660","pr5oady3g9p","shark","null","stimuli/woods_64.jpg","null","woods","K","non-repeat","null","355","stimuli/woods_64.jpg","","","","",""
"","","","","","image-keyboard-response","409","2.0.0","414674","pr5oady3g9p","shark","null","stimuli/kitchen_30.jpg","null","kitchen","L","non-repeat","null","356","stimuli/kitchen_30.jpg","","","","",""
"","","","","","image-keyboard-response","410","2.0.0","415679","pr5oady3g9p","shark","null","stimuli/street_14.jpg","null","street","A","non-repeat","null","357","stimuli/street_14.jpg","","","","",""
"","","","","","image-keyboard-response","411","2.0.0","416681","pr5oady3g9p","shark","448","stimuli/street_14.jpg"," ","street","A","repeat"," ","357","","","","","",""
"","","","","","image-keyboard-response","412","2.0.0","417698","pr5oady3g9p","shark","null","stimuli/bathroom_6.jpg","null","bathroom","B","non-repeat","null","358","stimuli/bathroom_6.jpg","","","","",""
"","","","","","image-keyboard-response","413","2.0.0","418705","pr5oady3g9p","shark","null","stimuli/desert_17.jpg","null","desert","C","non-repeat","null","359","stimuli/desert_17.jpg","","","","",""
"","","","","","image-keyboard-response","414","2.0.0","419718","pr5oady3g9p","shark","null","stimuli/playground_2.jpg","null","playground","G","non-repeat","null","360","stimuli/playground_2.jpg","","","","",""
"","","","","","image-keyboard-response","415","2.0.0","420725","pr5oady3g9p","shark","null","stimuli/coast_64.jpg","null","coast","H","non-repeat","null","361","stimuli/coast_64.jpg","","","","",""
"","","","","","image-keyboard-response","416","2.0.0","421732","pr5oady3g9p","shark","null","stimuli/gym_10.jpg","null","gym","I","non-repeat","null","362","stimuli/gym_10.jpg","","","","",""
"","","","","","image-keyboard-response","417","2.0.0","422747","pr5oady3g9p","shark","462","stimuli/gym_10.jpg"," ","gym","I","repeat"," ","362","","","","","",""
"","","","","","image-keyboard-response","418","2.0.0","423762","pr5oady3g9p","shark","null","stimuli/bridge_36.jpg","null","bridge","J","non-repeat","null","363","stimuli/bridge_36.jpg","","","","",""
"","","","","","image-keyboard-response","419","2.0.0","424777","pr5oady3g9p","shark","null","stimuli/woods_64.jpg","null","woods","K","non-repeat","null","364","stimuli/woods_64.jpg","","","","",""
"","","","","","image-keyboard-response","420","2.0.0","425784","pr5oady3g9p","shark","null","stimuli/kitchen_30.jpg","null","kitchen","L","non-repeat","null","365","stimuli/kitchen_30.jpg","","","","",""
"","","","","","image-keyboard-response","421","2.0.0","426795","pr5oady3g9p","shark","null","stimuli/bar_55.jpg","null","bar","D","non-repeat","null","366","stimuli/bar_55.jpg","","","","",""
"","","","","","image-keyboard-response","422","2.0.0","427811","pr5oady3g9p","shark","null","stimuli/stream_24.jpg","null","stream","E","non-repeat","null","367","stimuli/stream_24.jpg","","","","",""
"","","","","","image-keyboard-response","423","2.0.0","428822","pr5oady3g9p","shark","null","stimuli/field_26.jpg","null","field","F","non-repeat","null","368","stimuli/field_26.jpg","","","","",""
"","","","","","image-keyboard-response","424","2.0.0","429835","pr5oady3g9p","shark","null","stimuli/street_14.jpg","null","street","A","non-repeat","null","369","stimuli/street_14.jpg","","","","",""
"","","","","","image-keyboard-response","425","2.0.0","430839","pr5oady3g9p","shark","null","stimuli/bathroom_6.jpg","null","bathroom","B","non-repeat","null","370","stimuli/bathroom_6.jpg","","","","",""
"","","","","","image-keyboard-response","426","2.0.0","431856","pr5oady3g9p","shark","null","stimuli/desert_17.jpg","null","desert","C","non-repeat","null","371","stimuli/desert_17.jpg","","","","",""
"","","","","","image-keyboard-response","427","2.0.0","432868","pr5oady3g9p","shark","null","stimuli/playground_2.jpg","null","playground","G","non-repeat","null","372","stimuli/playground_2.jpg","","","","",""
"","","","","","image-keyboard-response","428","2.0.0","433880","pr5oady3g9p","shark","null","stimuli/coast_64.jpg","null","coast","H","non-repeat","null","373","stimuli/coast_64.jpg","","","","",""
"","","","","","image-keyboard-response","429","2.0.0","434888","pr5oady3g9p","shark","null","stimuli/gym_10.jpg","null","gym","I","non-repeat","null","374","stimuli/gym_10.jpg","","","","",""
"","","","","","image-keyboard-response","430","2.0.0","435891","pr5oady3g9p","shark","411","stimuli/gym_10.jpg"," ","gym","I","repeat"," ","374","","","","","",""
"","","","","","image-keyboard-response","431","2.0.0","436899","pr5oady3g9p","shark","null","stimuli/bridge_36.jpg","null","bridge","J","non-repeat","null","375","stimuli/bridge_36.jpg","","","","",""
"","","","","","image-keyboard-response","432","2.0.0","437906","pr5oady3g9p","shark","null","stimuli/woods_64.jpg","null","woods","K","non-repeat","null","376","stimuli/woods_64.jpg","","","","",""
"","","","","","image-keyboard-response","433","2.0.0","438923","pr5oady3g9p","shark","null","stimuli/kitchen_30.jpg","null","kitchen","L","non-repeat","null","377","stimuli/kitchen_30.jpg","","","","",""
"","","","","","image-keyboard-response","434","2.0.0","439938","pr5oady3g9p","shark","649","stimuli/kitchen_30.jpg"," ","kitchen","L","repeat"," ","377","","","","","",""
"","","","","","image-keyboard-response","435","2.0.0","440940","pr5oady3g9p","shark","null","stimuli/street_14.jpg","null","street","A","non-repeat","null","378","stimuli/street_14.jpg","","","","",""
"","","","","","image-keyboard-response","436","2.0.0","441946","pr5oady3g9p","shark","656","stimuli/street_14.jpg"," ","street","A","repeat"," ","378","","","","","",""
"","","","","","image-keyboard-response","437","2.0.0","442959","pr5oady3g9p","shark","null","stimuli/bathroom_6.jpg","null","bathroom","B","non-repeat","null","379","stimuli/bathroom_6.jpg","","","","",""
"","","","","","image-keyboard-response","438","2.0.0","443976","pr5oady3g9p","shark","null","stimuli/desert_17.jpg","null","desert","C","non-repeat","null","380","stimuli/desert_17.jpg","","","","",""
"","","","","","image-keyboard-response","439","2.0.0","444985","pr5oady3g9p","shark","584","stimuli/desert_17.jpg"," ","desert","C","repeat"," ","380","","","","","",""
"","","","","","html-keyboard-response","440","2.0.0","461212","pr5oady3g9p","shark","16227","
    <div style='width:900px;margin: auto;'><p>In the next part of the experiment, we want to see how well you learned the structure in the stream of images.</p>
    <p>On each trial, you will see two sequences of three images, sequence 1 and 2. We will ask you to indicate which sequence was more familiar based on the first part of the experiment.</p>
    <p>Press 1 if the first sequence (sequence 1) felt more familiar. Press 2 if the second sequence (sequence 2) felt more familiar.</p>
    <p>Press any key to begin.</p></div>"," ","","","","","","","","","","",""
"","","","","","html-keyboard-response","441","2.0.0","462214","pr5oady3g9p","shark","null","<p>Sequence 1</p>","null","","","","","","","","","","",""
"","","","","","image-keyboard-response","442","2.0.0","463226","pr5oady3g9p","shark","null","stimuli/street_14.jpg","null","","","","","","","","","","",""
"","","","","","image-keyboard-response","443","2.0.0","464241","pr5oady3g9p","shark","null","stimuli/stream_24.jpg","null","","","","","","","","","","",""
"","","","","","image-keyboard-response","444","2.0.0","465257","pr5oady3g9p","shark","null","stimuli/gym_10.jpg","null","","","","","","","","","","",""
"","","","","","html-keyboard-response","445","2.0.0","466259","pr5oady3g9p","shark","null","<p></p>","null","","","","","","","","","","",""
"","","","","","html-keyboard-response","446","2.0.0","467276","pr5oady3g9p","shark","null","<p>Sequence 2</p>","null","","","","","","","","","","",""
"","","","","","image-keyboard-response","447","2.0.0","468280","pr5oady3g9p","shark","null","stimuli/bridge_36.jpg","null","","","","","","","","","","",""
"","","","","","image-keyboard-response","448","2.0.0","469287","pr5oady3g9p","shark","null","stimuli/woods_64.jpg","null","","","","","","","","","","",""
"","","","","","image-keyboard-response","449","2.0.0","470296","pr5oady3g9p","shark","null","stimuli/kitchen_30.jpg","null","","","","","","","","","","",""
"","","","","","html-keyboard-response","450","2.0.0","471082","pr5oady3g9p","shark","786","<p>Press '1' if the first sequence was familiar, '2' if the second was.</p>","2","","","2","","","","[""J"",""K"",""L""]","[""A"",""E"",""I""]","true","[""<p>Sequence 1</p>"",""stimuli/street_14.jpg"",""stimuli/stream_24.jpg"",""stimuli/gym_10.jpg""]","[""<p>Sequence 2</p>"",""stimuli/bridge_36.jpg"",""stimuli/woods_64.jpg"",""stimuli/kitchen_30.jpg""]"
"","","","","","html-keyboard-response","451","2.0.0","472095","pr5oady3g9p","shark","null","<p>Sequence 1</p>","null","","","","","","","","","","",""
"","","","","","image-keyboard-response","452","2.0.0","473097","pr5oady3g9p","shark","null","stimuli/street_14.jpg","null","","","","","","","","","","",""
"","","","","","image-keyboard-response","453","2.0.0","474107","pr5oady3g9p","shark","null","stimuli/bathroom_6.jpg","null","","","","","","","","","","",""
"","","","","","image-keyboard-response","454","2.0.0","475115","pr5oady3g9p","shark","null","stimuli/desert_17.jpg","null","","","","","","","","","","",""
"","","","","","html-keyboard-response","455","2.0.0","476127","pr5oady3g9p","shark","null","<p></p>","null","","","","","","","","","","",""
"","","","","","html-keyboard-response","456","2.0.0","477143","pr5oady3g9p","shark","null","<p>Sequence 2</p>","null","","","","","","","","","","",""
"","","","","","image-keyboard-response","457","2.0.0","478159","pr5oady3g9p","shark","null","stimuli/bar_55.jpg","null","","","","","","","","","","",""
"","","","","","image-keyboard-response","458","2.0.0","479169","pr5oady3g9p","shark","null","stimuli/coast_64.jpg","null","","","","","","","","","","",""
"","","","","","image-keyboard-response","459","2.0.0","480178","pr5oady3g9p","shark","null","stimuli/kitchen_30.jpg","null","","","","","","","","","","",""
"","","","","","html-keyboard-response","460","2.0.0","480928","pr5oady3g9p","shark","750","<p>Press '1' if the first sequence was familiar, '2' if the second was.</p>","1","","","1","","","","[""A"",""B"",""C""]","[""D"",""H"",""L""]","true","[""<p>Sequence 1</p>"",""stimuli/street_14.jpg"",""stimuli/bathroom_6.jpg"",""stimuli/desert_17.jpg""]","[""<p>Sequence 2</p>"",""stimuli/bar_55.jpg"",""stimuli/coast_64.jpg"",""stimuli/kitchen_30.jpg""]"
"","","","","","html-keyboard-response","461","2.0.0","481944","pr5oady3g9p","shark","null","<p>Sequence 1</p>","null","","","","","","","","","","",""
"","","","","","image-keyboard-response","462","2.0.0","482947","pr5oady3g9p","shark","null","stimuli/bridge_36.jpg","null","","","","","","","","","","",""
"","","","","","image-keyboard-response","463","2.0.0","483953","pr5oady3g9p","shark","null","stimuli/bathroom_6.jpg","null","","","","","","","","","","",""
"","","","","","image-keyboard-response","464","2.0.0","484959","pr5oady3g9p","shark","null","stimuli/field_26.jpg","null","","","","","","","","","","",""
"","","","","","html-keyboard-response","465","2.0.0","485964","pr5oady3g9p","shark","null","<p></p>","null","","","","","","","","","","",""
"","","","","","html-keyboard-response","466","2.0.0","486966","pr5oady3g9p","shark","null","<p>Sequence 2</p>","null","","","","","","","","","","",""
"","","","","","image-keyboard-response","467","2.0.0","487972","pr5oady3g9p","shark","null","stimuli/playground_2.jpg","null","","","","","","","","","","",""
"","","","","","image-keyboard-response","468","2.0.0","488974","pr5oady3g9p","shark","null","stimuli/coast_64.jpg","null","","","","","","","","","","",""
"","","","","","image-keyboard-response","469","2.0.0","489978","pr5oady3g9p","shark","null","stimuli/gym_10.jpg","null","","","","","","","","","","",""
"","","","","","html-keyboard-response","470","2.0.0","491219","pr5oady3g9p","shark","1241","<p>Press '1' if the first sequence was familiar, '2' if the second was.</p>","2","","","2","","","","[""G"",""H"",""I""]","[""J"",""B"",""F""]","true","[""<p>Sequence 1</p>"",""stimuli/bridge_36.jpg"",""stimuli/bathroom_6.jpg"",""stimuli/field_26.jpg""]","[""<p>Sequence 2</p>"",""stimuli/playground_2.jpg"",""stimuli/coast_64.jpg"",""stimuli/gym_10.jpg""]"
"","","","","","html-keyboard-response","471","2.0.0","492222","pr5oady3g9p","shark","null","<p>Sequence 1</p>","null","","","","","","","","","","",""
"","","","","","image-keyboard-response","472","2.0.0","493225","pr5oady3g9p","shark","null","stimuli/bridge_36.jpg","null","","","","","","","","","","",""
"","","","","","image-keyboard-response","473","2.0.0","494229","pr5oady3g9p","shark","null","stimuli/woods_64.jpg","null","","","","","","","","","","",""
"","","","","","image-keyboard-response","474","2.0.0","495238","pr5oady3g9p","shark","null","stimuli/kitchen_30.jpg","null","","","","","","","","","","",""
"","","","","","html-keyboard-response","475","2.0.0","496245","pr5oady3g9p","shark","null","<p></p>","null","","","","","","","","","","",""
"","","","","","html-keyboard-response","476","2.0.0","497257","pr5oady3g9p","shark","null","<p>Sequence 2</p>","null","","","","","","","","","","",""
"","","","","","image-keyboard-response","477","2.0.0","498271","pr5oady3g9p","shark","null","stimuli/bridge_36.jpg","null","","","","","","","","","","",""
"","","","","","image-keyboard-response","478","2.0.0","499272","pr5oady3g9p","shark","null","stimuli/bathroom_6.jpg","null","","","","","","","","","","",""
"","","","","","image-keyboard-response","479","2.0.0","500275","pr5oady3g9p","shark","null","stimuli/field_26.jpg","null","","","","","","","","","","",""
"","","","","","html-keyboard-response","480","2.0.0","501412","pr5oady3g9p","shark","1137","<p>Press '1' if the first sequence was familiar, '2' if the second was.</p>","1","","","1","","","","[""J"",""K"",""L""]","[""J"",""B"",""F""]","true","[""<p>Sequence 1</p>"",""stimuli/bridge_36.jpg"",""stimuli/woods_64.jpg"",""stimuli/kitchen_30.jpg""]","[""<p>Sequence 2</p>"",""stimuli/bridge_36.jpg"",""stimuli/bathroom_6.jpg"",""stimuli/field_26.jpg""]"
"","","","","","html-keyboard-response","481","2.0.0","502426","pr5oady3g9p","shark","null","<p>Sequence 1</p>","null","","","","","","","","","","",""
"","","","","","image-keyboard-response","482","2.0.0","503439","pr5oady3g9p","shark","null","stimuli/bar_55.jpg","null","","","","","","","","","","",""
"","","","","","image-keyboard-response","483","2.0.0","504447","pr5oady3g9p","shark","null","stimuli/coast_64.jpg","null","","","","","","","","","","",""
"","","","","","image-keyboard-response","484","2.0.0","505453","pr5oady3g9p","shark","null","stimuli/kitchen_30.jpg","null","","","","","","","","","","",""
"","","","","","html-keyboard-response","485","2.0.0","506458","pr5oady3g9p","shark","null","<p></p>","null","","","","","","","","","","",""
"","","","","","html-keyboard-response","486","2.0.0","507466","pr5oady3g9p","shark","null","<p>Sequence 2</p>","null","","","","","","","","","","",""
"","","","","","image-keyboard-response","487","2.0.0","508473","pr5oady3g9p","shark","null","stimuli/bridge_36.jpg","null","","","","","","","","","","",""
"","","","","","image-keyboard-response","488","2.0.0","509487","pr5oady3g9p","shark","null","stimuli/woods_64.jpg","null","","","","","","","","","","",""
"","","","","","image-keyboard-response","489","2.0.0","510493","pr5oady3g9p","shark","null","stimuli/kitchen_30.jpg","null","","","","","","","","","","",""
"","","","","","html-keyboard-response","490","2.0.0","511275","pr5oady3g9p","shark","782","<p>Press '1' if the first sequence was familiar, '2' if the second was.</p>","2","","","2","","","","[""J"",""K"",""L""]","[""D"",""H"",""L""]","true","[""<p>Sequence 1</p>"",""stimuli/bar_55.jpg"",""stimuli/coast_64.jpg"",""stimuli/kitchen_30.jpg""]","[""<p>Sequence 2</p>"",""stimuli/bridge_36.jpg"",""stimuli/woods_64.jpg"",""stimuli/kitchen_30.jpg""]"
"","","","","","html-keyboard-response","491","2.0.0","512288","pr5oady3g9p","shark","null","<p>Sequence 1</p>","null","","","","","","","","","","",""
"","","","","","image-keyboard-response","492","2.0.0","513303","pr5oady3g9p","shark","null","stimuli/street_14.jpg","null","","","","","","","","","","",""
"","","","","","image-keyboard-response","493","2.0.0","514304","pr5oady3g9p","shark","null","stimuli/stream_24.jpg","null","","","","","","","","","","",""
"","","","","","image-keyboard-response","494","2.0.0","515320","pr5oady3g9p","shark","null","stimuli/gym_10.jpg","null","","","","","","","","","","",""
"","","","","","html-keyboard-response","495","2.0.0","516329","pr5oady3g9p","shark","null","<p></p>","null","","","","","","","","","","",""
"","","","","","html-keyboard-response","496","2.0.0","517345","pr5oady3g9p","shark","null","<p>Sequence 2</p>","null","","","","","","","","","","",""
"","","","","","image-keyboard-response","497","2.0.0","518347","pr5oady3g9p","shark","null","stimuli/street_14.jpg","null","","","","","","","","","","",""
"","","","","","image-keyboard-response","498","2.0.0","519352","pr5oady3g9p","shark","null","stimuli/bathroom_6.jpg","null","","","","","","","","","","",""
"","","","","","image-keyboard-response","499","2.0.0","520362","pr5oady3g9p","shark","null","stimuli/desert_17.jpg","null","","","","","","","","","","",""
"","","","","","html-keyboard-response","500","2.0.0","522183","pr5oady3g9p","shark","1820","<p>Press '1' if the first sequence was familiar, '2' if the second was.</p>","2","","","2","","","","[""A"",""B"",""C""]","[""A"",""E"",""I""]","true","[""<p>Sequence 1</p>"",""stimuli/street_14.jpg"",""stimuli/stream_24.jpg"",""stimuli/gym_10.jpg""]","[""<p>Sequence 2</p>"",""stimuli/street_14.jpg"",""stimuli/bathroom_6.jpg"",""stimuli/desert_17.jpg""]"
"","","","","","html-keyboard-response","501","2.0.0","523190","pr5oady3g9p","shark","null","<p>Sequence 1</p>","null","","","","","","","","","","",""
"","","","","","image-keyboard-response","502","2.0.0","524198","pr5oady3g9p","shark","null","stimuli/street_14.jpg","null","","","","","","","","","","",""
"","","","","","image-keyboard-response","503","2.0.0","525202","pr5oady3g9p","shark","null","stimuli/stream_24.jpg","null","","","","","","","","","","",""
"","","","","","image-keyboard-response","504","2.0.0","526219","pr5oady3g9p","shark","null","stimuli/gym_10.jpg","null","","","","","","","","","","",""
"","","","","","html-keyboard-response","505","2.0.0","527221","pr5oady3g9p","shark","null","<p></p>","null","","","","","","","","","","",""
"","","","","","html-keyboard-response","506","2.0.0","528234","pr5oady3g9p","shark","null","<p>Sequence 2</p>","null","","","","","","","","","","",""
