"success","timeout","failed_images","failed_audio","failed_video","trial_type","trial_index","plugin_version","time_elapsed","random_id","participant","rt","stimulus","response","category","letter","correct_response","correct_response_key","trial_counter","current_image","test_triplet","foil_triplet","correct","firstSequencePaths","secondSequencePaths"
"true","false","[]","[]","[]","preload","0","2.0.0","319","psfbv10qd5k","panda","","","","","","","","","","","","","",""
"true","","","","","fullscreen","1","null","3146","psfbv10qd5k","panda","1825","","","","","","","","","","","","",""
"","","","","","html-keyboard-response","2","2.0.0","5075","psfbv10qd5k","panda","1927","Welcome to the experiment. Press any key to begin.","Enter","","","","","","","","","","",""
"","","","","","survey-text","3","2.0.0","7303","psfbv10qd5k","panda","2215","","{""participant_id"":""panda""}","","","","","","","","","","",""
"","","","","","html-keyboard-response","4","2.0.0","15188","psfbv10qd5k","panda","7884","
  <p>For this trial, you will see a series of images.</p>
  <p><b>Press the spacebar whenever you see the same image appear twice in a row.</b></p>
  <p>In other words, whenever the same image repeats back to back, press the spacebar.</p>
  <p>Press any key to begin.</p>","Enter","","","","","","","","","","",""
"","","","","","image-keyboard-response","5","2.0.0","16196","psfbv10qd5k","panda","null","stimuli/playground_7.jpg","null","playground","J","non-repeat","null","0","stimuli/playground_7.jpg","","","","",""
"","","","","","image-keyboard-response","6","2.0.0","17203","psfbv10qd5k","panda","null","stimuli/bar_41.jpg","null","bar","K","non-repeat","null","1","stimuli/bar_41.jpg","","","","",""
"","","","","","image-keyboard-response","7","2.0.0","18209","psfbv10qd5k","panda","null","stimuli/bathroom_57.jpg","null","bathroom","L","non-repeat","null","2","stimuli/bathroom_57.jpg","","","","",""
"","","","","","image-keyboard-response","8","2.0.0","19216","psfbv10qd5k","panda","null","stimuli/coast_35.jpg","null","coast","D","non-repeat","null","3","stimuli/coast_35.jpg","","","","",""
"","","","","","image-keyboard-response","9","2.0.0","20224","psfbv10qd5k","panda","null","stimuli/field_55.jpg","null","field","E","non-repeat","null","4","stimuli/field_55.jpg","","","","",""
"","","","","","image-keyboard-response","10","2.0.0","21233","psfbv10qd5k","panda","null","stimuli/kitchen_51.jpg","null","kitchen","F","non-repeat","null","5","stimuli/kitchen_51.jpg","","","","",""
"","","","","","image-keyboard-response","11","2.0.0","22239","psfbv10qd5k","panda","635","stimuli/kitchen_51.jpg"," ","kitchen","F","repeat"," ","5","","","","","",""
"","","","","","image-keyboard-response","12","2.0.0","23244","psfbv10qd5k","panda","null","stimuli/bridge_20.jpg","null","bridge","G","non-repeat","null","6","stimuli/bridge_20.jpg","","","","",""
"","","","","","image-keyboard-response","13","2.0.0","24253","psfbv10qd5k","panda","null","stimuli/street_47.jpg","null","street","H","non-repeat","null","7","stimuli/street_47.jpg","","","","",""
"","","","","","image-keyboard-response","14","2.0.0","25261","psfbv10qd5k","panda","null","stimuli/stream_31.jpg","null","stream","I","non-repeat","null","8","stimuli/stream_31.jpg","","","","",""
"","","","","","image-keyboard-response","15","2.0.0","26269","psfbv10qd5k","panda","null","stimuli/desert_54.jpg","null","desert","A","non-repeat","null","9","stimuli/desert_54.jpg","","","","",""
"","","","","","image-keyboard-response","16","2.0.0","27280","psfbv10qd5k","panda","null","stimuli/woods_2.jpg","null","woods","B","non-repeat","null","10","stimuli/woods_2.jpg","","","","",""
"","","","","","image-keyboard-response","17","2.0.0","28288","psfbv10qd5k","panda","null","stimuli/gym_9.jpg","null","gym","C","non-repeat","null","11","stimuli/gym_9.jpg","","","","",""
"","","","","","image-keyboard-response","18","2.0.0","29293","psfbv10qd5k","panda","960","stimuli/coast_35.jpg"," ","coast","D","non-repeat","null","12","stimuli/coast_35.jpg","","","","",""
"","","","","","image-keyboard-response","19","2.0.0","30298","psfbv10qd5k","panda","767","stimuli/field_55.jpg"," ","field","E","non-repeat","null","13","stimuli/field_55.jpg","","","","",""
"","","","","","image-keyboard-response","20","2.0.0","31304","psfbv10qd5k","panda","null","stimuli/kitchen_51.jpg","null","kitchen","F","non-repeat","null","14","stimuli/kitchen_51.jpg","","","","",""
"","","","","","image-keyboard-response","21","2.0.0","32308","psfbv10qd5k","panda","null","stimuli/desert_54.jpg","null","desert","A","non-repeat","null","15","stimuli/desert_54.jpg","","","","",""
"","","","","","image-keyboard-response","22","2.0.0","33314","psfbv10qd5k","panda","724","stimuli/woods_2.jpg"," ","woods","B","non-repeat","null","16","stimuli/woods_2.jpg","","","","",""
"","","","","","image-keyboard-response","23","2.0.0","34319","psfbv10qd5k","panda","729","stimuli/gym_9.jpg"," ","gym","C","non-repeat","null","17","stimuli/gym_9.jpg","","","","",""
"","","","","","image-keyboard-response","24","2.0.0","35324","psfbv10qd5k","panda","null","stimuli/bridge_20.jpg","null","bridge","G","non-repeat","null","18","stimuli/bridge_20.jpg","","","","",""
"","","","","","image-keyboard-response","25","2.0.0","36330","psfbv10qd5k","panda","633","stimuli/bridge_20.jpg"," ","bridge","G","repeat"," ","18","","","","","",""
"","","","","","image-keyboard-response","26","2.0.0","37335","psfbv10qd5k","panda","898","stimuli/street_47.jpg"," ","street","H","non-repeat","null","19","stimuli/street_47.jpg","","","","",""
"","","","","","image-keyboard-response","27","2.0.0","38341","psfbv10qd5k","panda","null","stimuli/stream_31.jpg","null","stream","I","non-repeat","null","20","stimuli/stream_31.jpg","","","","",""
"","","","","","image-keyboard-response","28","2.0.0","39345","psfbv10qd5k","panda","null","stimuli/playground_7.jpg","null","playground","J","non-repeat","null","21","stimuli/playground_7.jpg","","","","",""
"","","","","","image-keyboard-response","29","2.0.0","40349","psfbv10qd5k","panda","null","stimuli/bar_41.jpg","null","bar","K","non-repeat","null","22","stimuli/bar_41.jpg","","","","",""
"","","","","","image-keyboard-response","30","2.0.0","41355","psfbv10qd5k","panda","658","stimuli/bathroom_57.jpg"," ","bathroom","L","non-repeat","null","23","stimuli/bathroom_57.jpg","","","","",""
"","","","","","image-keyboard-response","31","2.0.0","42359","psfbv10qd5k","panda","690","stimuli/bridge_20.jpg"," ","bridge","G","non-repeat","null","24","stimuli/bridge_20.jpg","","","","",""
"","","","","","image-keyboard-response","32","2.0.0","43363","psfbv10qd5k","panda","773","stimuli/street_47.jpg"," ","street","H","non-repeat","null","25","stimuli/street_47.jpg","","","","",""
"","","","","","image-keyboard-response","33","2.0.0","44371","psfbv10qd5k","panda","649","stimuli/stream_31.jpg"," ","stream","I","non-repeat","null","26","stimuli/stream_31.jpg","","","","",""
"","","","","","image-keyboard-response","34","2.0.0","45377","psfbv10qd5k","panda","735","stimuli/playground_7.jpg"," ","playground","J","non-repeat","null","27","stimuli/playground_7.jpg","","","","",""
"","","","","","image-keyboard-response","35","2.0.0","46383","psfbv10qd5k","panda","696","stimuli/bar_41.jpg"," ","bar","K","non-repeat","null","28","stimuli/bar_41.jpg","","","","",""
"","","","","","image-keyboard-response","36","2.0.0","47387","psfbv10qd5k","panda","659","stimuli/bathroom_57.jpg"," ","bathroom","L","non-repeat","null","29","stimuli/bathroom_57.jpg","","","","",""
"","","","","","image-keyboard-response","37","2.0.0","48393","psfbv10qd5k","panda","546","stimuli/bathroom_57.jpg"," ","bathroom","L","repeat"," ","29","","","","","",""
"","","","","","image-keyboard-response","38","2.0.0","49399","psfbv10qd5k","panda","697","stimuli/coast_35.jpg"," ","coast","D","non-repeat","null","30","stimuli/coast_35.jpg","","","","",""
"","","","","","image-keyboard-response","39","2.0.0","50404","psfbv10qd5k","panda","657","stimuli/field_55.jpg"," ","field","E","non-repeat","null","31","stimuli/field_55.jpg","","","","",""
"","","","","","image-keyboard-response","40","2.0.0","51409","psfbv10qd5k","panda","675","stimuli/kitchen_51.jpg"," ","kitchen","F","non-repeat","null","32","stimuli/kitchen_51.jpg","","","","",""
"","","","","","image-keyboard-response","41","2.0.0","52414","psfbv10qd5k","panda","494","stimuli/kitchen_51.jpg"," ","kitchen","F","repeat"," ","32","","","","","",""
"","","","","","image-keyboard-response","42","2.0.0","53419","psfbv10qd5k","panda","706","stimuli/playground_7.jpg"," ","playground","J","non-repeat","null","33","stimuli/playground_7.jpg","","","","",""
"","","","","","image-keyboard-response","43","2.0.0","54424","psfbv10qd5k","panda","611","stimuli/bar_41.jpg"," ","bar","K","non-repeat","null","34","stimuli/bar_41.jpg","","","","",""
"","","","","","image-keyboard-response","44","2.0.0","55429","psfbv10qd5k","panda","582","stimuli/bathroom_57.jpg"," ","bathroom","L","non-repeat","null","35","stimuli/bathroom_57.jpg","","","","",""
"","","","","","image-keyboard-response","45","2.0.0","56434","psfbv10qd5k","panda","759","stimuli/bridge_20.jpg"," ","bridge","G","non-repeat","null","36","stimuli/bridge_20.jpg","","","","",""
"","","","","","image-keyboard-response","46","2.0.0","57439","psfbv10qd5k","panda","739","stimuli/street_47.jpg"," ","street","H","non-repeat","null","37","stimuli/street_47.jpg","","","","",""
"","","","","","image-keyboard-response","47","2.0.0","58445","psfbv10qd5k","panda","null","stimuli/stream_31.jpg","null","stream","I","non-repeat","null","38","stimuli/stream_31.jpg","","","","",""
"","","","","","image-keyboard-response","48","2.0.0","59450","psfbv10qd5k","panda","null","stimuli/coast_35.jpg","null","coast","D","non-repeat","null","39","stimuli/coast_35.jpg","","","","",""
"","","","","","image-keyboard-response","49","2.0.0","60456","psfbv10qd5k","panda","664","stimuli/coast_35.jpg"," ","coast","D","repeat"," ","39","","","","","",""
"","","","","","image-keyboard-response","50","2.0.0","61460","psfbv10qd5k","panda","null","stimuli/field_55.jpg","null","field","E","non-repeat","null","40","stimuli/field_55.jpg","","","","",""
"","","","","","image-keyboard-response","51","2.0.0","62464","psfbv10qd5k","panda","null","stimuli/kitchen_51.jpg","null","kitchen","F","non-repeat","null","41","stimuli/kitchen_51.jpg","","","","",""
"","","","","","image-keyboard-response","52","2.0.0","63470","psfbv10qd5k","panda","557","stimuli/bridge_20.jpg"," ","bridge","G","non-repeat","null","42","stimuli/bridge_20.jpg","","","","",""
"","","","","","image-keyboard-response","53","2.0.0","64475","psfbv10qd5k","panda","null","stimuli/street_47.jpg","null","street","H","non-repeat","null","43","stimuli/street_47.jpg","","","","",""
"","","","","","image-keyboard-response","54","2.0.0","65480","psfbv10qd5k","panda","null","stimuli/stream_31.jpg","null","stream","I","non-repeat","null","44","stimuli/stream_31.jpg","","","","",""
"","","","","","image-keyboard-response","55","2.0.0","66484","psfbv10qd5k","panda","313","stimuli/coast_35.jpg"," ","coast","D","non-repeat","null","45","stimuli/coast_35.jpg","","","","",""
"","","","","","image-keyboard-response","56","2.0.0","67488","psfbv10qd5k","panda","null","stimuli/coast_35.jpg","null","coast","D","repeat"," ","45","","","","","",""
"","","","","","image-keyboard-response","57","2.0.0","68493","psfbv10qd5k","panda","54","stimuli/field_55.jpg"," ","field","E","non-repeat","null","46","stimuli/field_55.jpg","","","","",""
"","","","","","image-keyboard-response","58","2.0.0","69498","psfbv10qd5k","panda","null","stimuli/kitchen_51.jpg","null","kitchen","F","non-repeat","null","47","stimuli/kitchen_51.jpg","","","","",""
"","","","","","image-keyboard-response","59","2.0.0","70503","psfbv10qd5k","panda","764","stimuli/desert_54.jpg"," ","desert","A","non-repeat","null","48","stimuli/desert_54.jpg","","","","",""
"","","","","","image-keyboard-response","60","2.0.0","71508","psfbv10qd5k","panda","null","stimuli/woods_2.jpg","null","woods","B","non-repeat","null","49","stimuli/woods_2.jpg","","","","",""
"","","","","","image-keyboard-response","61","2.0.0","72513","psfbv10qd5k","panda","null","stimuli/gym_9.jpg","null","gym","C","non-repeat","null","50","stimuli/gym_9.jpg","","","","",""
"","","","","","image-keyboard-response","62","2.0.0","73518","psfbv10qd5k","panda","null","stimuli/playground_7.jpg","null","playground","J","non-repeat","null","51","stimuli/playground_7.jpg","","","","",""
"","","","","","image-keyboard-response","63","2.0.0","74524","psfbv10qd5k","panda","61","stimuli/bar_41.jpg"," ","bar","K","non-repeat","null","52","stimuli/bar_41.jpg","","","","",""
"","","","","","image-keyboard-response","64","2.0.0","75529","psfbv10qd5k","panda","null","stimuli/bathroom_57.jpg","null","bathroom","L","non-repeat","null","53","stimuli/bathroom_57.jpg","","","","",""
"","","","","","image-keyboard-response","65","2.0.0","76535","psfbv10qd5k","panda","865","stimuli/coast_35.jpg"," ","coast","D","non-repeat","null","54","stimuli/coast_35.jpg","","","","",""
"","","","","","image-keyboard-response","66","2.0.0","77540","psfbv10qd5k","panda","null","stimuli/field_55.jpg","null","field","E","non-repeat","null","55","stimuli/field_55.jpg","","","","",""
"","","","","","image-keyboard-response","67","2.0.0","78545","psfbv10qd5k","panda","null","stimuli/kitchen_51.jpg","null","kitchen","F","non-repeat","null","56","stimuli/kitchen_51.jpg","","","","",""
"","","","","","image-keyboard-response","68","2.0.0","79551","psfbv10qd5k","panda","null","stimuli/kitchen_51.jpg","null","kitchen","F","repeat"," ","56","","","","","",""
"","","","","","image-keyboard-response","69","2.0.0","80557","psfbv10qd5k","panda","44","stimuli/desert_54.jpg"," ","desert","A","non-repeat","null","57","stimuli/desert_54.jpg","","","","",""
"","","","","","image-keyboard-response","70","2.0.0","81562","psfbv10qd5k","panda","null","stimuli/woods_2.jpg","null","woods","B","non-repeat","null","58","stimuli/woods_2.jpg","","","","",""
"","","","","","image-keyboard-response","71","2.0.0","82566","psfbv10qd5k","panda","null","stimuli/gym_9.jpg","null","gym","C","non-repeat","null","59","stimuli/gym_9.jpg","","","","",""
"","","","","","image-keyboard-response","72","2.0.0","83571","psfbv10qd5k","panda","483","stimuli/gym_9.jpg"," ","gym","C","repeat"," ","59","","","","","",""
"","","","","","image-keyboard-response","73","2.0.0","84575","psfbv10qd5k","panda","null","stimuli/playground_7.jpg","null","playground","J","non-repeat","null","60","stimuli/playground_7.jpg","","","","",""
"","","","","","image-keyboard-response","74","2.0.0","85580","psfbv10qd5k","panda","null","stimuli/bar_41.jpg","null","bar","K","non-repeat","null","61","stimuli/bar_41.jpg","","","","",""
"","","","","","image-keyboard-response","75","2.0.0","86584","psfbv10qd5k","panda","777","stimuli/bathroom_57.jpg"," ","bathroom","L","non-repeat","null","62","stimuli/bathroom_57.jpg","","","","",""
"","","","","","image-keyboard-response","76","2.0.0","87589","psfbv10qd5k","panda","null","stimuli/desert_54.jpg","null","desert","A","non-repeat","null","63","stimuli/desert_54.jpg","","","","",""
"","","","","","image-keyboard-response","77","2.0.0","88593","psfbv10qd5k","panda","667","stimuli/woods_2.jpg"," ","woods","B","non-repeat","null","64","stimuli/woods_2.jpg","","","","",""
"","","","","","image-keyboard-response","78","2.0.0","89598","psfbv10qd5k","panda","null","stimuli/gym_9.jpg","null","gym","C","non-repeat","null","65","stimuli/gym_9.jpg","","","","",""
"","","","","","image-keyboard-response","79","2.0.0","90603","psfbv10qd5k","panda","null","stimuli/bridge_20.jpg","null","bridge","G","non-repeat","null","66","stimuli/bridge_20.jpg","","","","",""
"","","","","","image-keyboard-response","80","2.0.0","91608","psfbv10qd5k","panda","22","stimuli/street_47.jpg"," ","street","H","non-repeat","null","67","stimuli/street_47.jpg","","","","",""
"","","","","","image-keyboard-response","81","2.0.0","92613","psfbv10qd5k","panda","null","stimuli/stream_31.jpg","null","stream","I","non-repeat","null","68","stimuli/stream_31.jpg","","","","",""
"","","","","","image-keyboard-response","82","2.0.0","93615","psfbv10qd5k","panda","82","stimuli/coast_35.jpg"," ","coast","D","non-repeat","null","69","stimuli/coast_35.jpg","","","","",""
"","","","","","image-keyboard-response","83","2.0.0","94618","psfbv10qd5k","panda","null","stimuli/field_55.jpg","null","field","E","non-repeat","null","70","stimuli/field_55.jpg","","","","",""
"","","","","","image-keyboard-response","84","2.0.0","95623","psfbv10qd5k","panda","null","stimuli/kitchen_51.jpg","null","kitchen","F","non-repeat","null","71","stimuli/kitchen_51.jpg","","","","",""
"","","","","","image-keyboard-response","85","2.0.0","96628","psfbv10qd5k","panda","null","stimuli/desert_54.jpg","null","desert","A","non-repeat","null","72","stimuli/desert_54.jpg","","","","",""
"","","","","","image-keyboard-response","86","2.0.0","97632","psfbv10qd5k","panda","800","stimuli/desert_54.jpg"," ","desert","A","repeat"," ","72","","","","","",""
"","","","","","image-keyboard-response","87","2.0.0","98635","psfbv10qd5k","panda","null","stimuli/woods_2.jpg","null","woods","B","non-repeat","null","73","stimuli/woods_2.jpg","","","","",""
"","","","","","image-keyboard-response","88","2.0.0","99639","psfbv10qd5k","panda","null","stimuli/gym_9.jpg","null","gym","C","non-repeat","null","74","stimuli/gym_9.jpg","","","","",""
"","","","","","image-keyboard-response","89","2.0.0","100644","psfbv10qd5k","panda","null","stimuli/gym_9.jpg","null","gym","C","repeat"," ","74","","","","","",""
"","","","","","image-keyboard-response","90","2.0.0","101649","psfbv10qd5k","panda","309","stimuli/coast_35.jpg"," ","coast","D","non-repeat","null","75","stimuli/coast_35.jpg","","","","",""
"","","","","","image-keyboard-response","91","2.0.0","102655","psfbv10qd5k","panda","null","stimuli/field_55.jpg","null","field","E","non-repeat","null","76","stimuli/field_55.jpg","","","","",""
"","","","","","image-keyboard-response","92","2.0.0","103658","psfbv10qd5k","panda","null","stimuli/kitchen_51.jpg","null","kitchen","F","non-repeat","null","77","stimuli/kitchen_51.jpg","","","","",""
"","","","","","image-keyboard-response","93","2.0.0","104662","psfbv10qd5k","panda","null","stimuli/bridge_20.jpg","null","bridge","G","non-repeat","null","78","stimuli/bridge_20.jpg","","","","",""
"","","","","","image-keyboard-response","94","2.0.0","105668","psfbv10qd5k","panda","587","stimuli/street_47.jpg"," ","street","H","non-repeat","null","79","stimuli/street_47.jpg","","","","",""
"","","","","","image-keyboard-response","95","2.0.0","106674","psfbv10qd5k","panda","812","stimuli/stream_31.jpg"," ","stream","I","non-repeat","null","80","stimuli/stream_31.jpg","","","","",""
"","","","","","image-keyboard-response","96","2.0.0","107677","psfbv10qd5k","panda","942","stimuli/playground_7.jpg"," ","playground","J","non-repeat","null","81","stimuli/playground_7.jpg","","","","",""
"","","","","","image-keyboard-response","97","2.0.0","108680","psfbv10qd5k","panda","null","stimuli/bar_41.jpg","null","bar","K","non-repeat","null","82","stimuli/bar_41.jpg","","","","",""
"","","","","","image-keyboard-response","98","2.0.0","109686","psfbv10qd5k","panda","null","stimuli/bathroom_57.jpg","null","bathroom","L","non-repeat","null","83","stimuli/bathroom_57.jpg","","","","",""
"","","","","","image-keyboard-response","99","2.0.0","110690","psfbv10qd5k","panda","null","stimuli/desert_54.jpg","null","desert","A","non-repeat","null","84","stimuli/desert_54.jpg","","","","",""
"","","","","","image-keyboard-response","100","2.0.0","111693","psfbv10qd5k","panda","null","stimuli/woods_2.jpg","null","woods","B","non-repeat","null","85","stimuli/woods_2.jpg","","","","",""
"","","","","","image-keyboard-response","101","2.0.0","112697","psfbv10qd5k","panda","null","stimuli/gym_9.jpg","null","gym","C","non-repeat","null","86","stimuli/gym_9.jpg","","","","",""
"","","","","","image-keyboard-response","102","2.0.0","113700","psfbv10qd5k","panda","null","stimuli/bridge_20.jpg","null","bridge","G","non-repeat","null","87","stimuli/bridge_20.jpg","","","","",""
"","","","","","image-keyboard-response","103","2.0.0","114706","psfbv10qd5k","panda","null","stimuli/street_47.jpg","null","street","H","non-repeat","null","88","stimuli/street_47.jpg","","","","",""
"","","","","","image-keyboard-response","104","2.0.0","115710","psfbv10qd5k","panda","null","stimuli/stream_31.jpg","null","stream","I","non-repeat","null","89","stimuli/stream_31.jpg","","","","",""
"","","","","","image-keyboard-response","105","2.0.0","116714","psfbv10qd5k","panda","null","stimuli/playground_7.jpg","null","playground","J","non-repeat","null","90","stimuli/playground_7.jpg","","","","",""
"","","","","","image-keyboard-response","106","2.0.0","117719","psfbv10qd5k","panda","471","stimuli/playground_7.jpg"," ","playground","J","repeat"," ","90","","","","","",""
"","","","","","image-keyboard-response","107","2.0.0","118722","psfbv10qd5k","panda","null","stimuli/bar_41.jpg","null","bar","K","non-repeat","null","91","stimuli/bar_41.jpg","","","","",""
"","","","","","image-keyboard-response","108","2.0.0","119728","psfbv10qd5k","panda","null","stimuli/bathroom_57.jpg","null","bathroom","L","non-repeat","null","92","stimuli/bathroom_57.jpg","","","","",""
"","","","","","image-keyboard-response","109","2.0.0","120733","psfbv10qd5k","panda","null","stimuli/coast_35.jpg","null","coast","D","non-repeat","null","93","stimuli/coast_35.jpg","","","","",""
"","","","","","image-keyboard-response","110","2.0.0","121738","psfbv10qd5k","panda","null","stimuli/field_55.jpg","null","field","E","non-repeat","null","94","stimuli/field_55.jpg","","","","",""
"","","","","","image-keyboard-response","111","2.0.0","122743","psfbv10qd5k","panda","null","stimuli/kitchen_51.jpg","null","kitchen","F","non-repeat","null","95","stimuli/kitchen_51.jpg","","","","",""
"","","","","","image-keyboard-response","112","2.0.0","123747","psfbv10qd5k","panda","null","stimuli/desert_54.jpg","null","desert","A","non-repeat","null","96","stimuli/desert_54.jpg","","","","",""
"","","","","","image-keyboard-response","113","2.0.0","124751","psfbv10qd5k","panda","null","stimuli/woods_2.jpg","null","woods","B","non-repeat","null","97","stimuli/woods_2.jpg","","","","",""
"","","","","","image-keyboard-response","114","2.0.0","125757","psfbv10qd5k","panda","null","stimuli/gym_9.jpg","null","gym","C","non-repeat","null","98","stimuli/gym_9.jpg","","","","",""
"","","","","","image-keyboard-response","115","2.0.0","126762","psfbv10qd5k","panda","null","stimuli/bridge_20.jpg","null","bridge","G","non-repeat","null","99","stimuli/bridge_20.jpg","","","","",""
"","","","","","image-keyboard-response","116","2.0.0","127766","psfbv10qd5k","panda","null","stimuli/street_47.jpg","null","street","H","non-repeat","null","100","stimuli/street_47.jpg","","","","",""
"","","","","","image-keyboard-response","117","2.0.0","128769","psfbv10qd5k","panda","null","stimuli/stream_31.jpg","null","stream","I","non-repeat","null","101","stimuli/stream_31.jpg","","","","",""
"","","","","","image-keyboard-response","118","2.0.0","129775","psfbv10qd5k","panda","null","stimuli/playground_7.jpg","null","playground","J","non-repeat","null","102","stimuli/playground_7.jpg","","","","",""
"","","","","","image-keyboard-response","119","2.0.0","130780","psfbv10qd5k","panda","471","stimuli/playground_7.jpg"," ","playground","J","repeat"," ","102","","","","","",""
"","","","","","image-keyboard-response","120","2.0.0","131785","psfbv10qd5k","panda","null","stimuli/bar_41.jpg","null","bar","K","non-repeat","null","103","stimuli/bar_41.jpg","","","","",""
"","","","","","image-keyboard-response","121","2.0.0","132788","psfbv10qd5k","panda","null","stimuli/bathroom_57.jpg","null","bathroom","L","non-repeat","null","104","stimuli/bathroom_57.jpg","","","","",""
"","","","","","image-keyboard-response","122","2.0.0","133793","psfbv10qd5k","panda","null","stimuli/coast_35.jpg","null","coast","D","non-repeat","null","105","stimuli/coast_35.jpg","","","","",""
"","","","","","image-keyboard-response","123","2.0.0","134798","psfbv10qd5k","panda","596","stimuli/coast_35.jpg"," ","coast","D","repeat"," ","105","","","","","",""
"","","","","","image-keyboard-response","124","2.0.0","135804","psfbv10qd5k","panda","null","stimuli/field_55.jpg","null","field","E","non-repeat","null","106","stimuli/field_55.jpg","","","","",""
"","","","","","image-keyboard-response","125","2.0.0","136808","psfbv10qd5k","panda","null","stimuli/kitchen_51.jpg","null","kitchen","F","non-repeat","null","107","stimuli/kitchen_51.jpg","","","","",""
"","","","","","image-keyboard-response","126","2.0.0","137813","psfbv10qd5k","panda","null","stimuli/playground_7.jpg","null","playground","J","non-repeat","null","108","stimuli/playground_7.jpg","","","","",""
"","","","","","image-keyboard-response","127","2.0.0","138817","psfbv10qd5k","panda","null","stimuli/bar_41.jpg","null","bar","K","non-repeat","null","109","stimuli/bar_41.jpg","","","","",""
"","","","","","image-keyboard-response","128","2.0.0","139822","psfbv10qd5k","panda","null","stimuli/bathroom_57.jpg","null","bathroom","L","non-repeat","null","110","stimuli/bathroom_57.jpg","","","","",""
"","","","","","image-keyboard-response","129","2.0.0","140827","psfbv10qd5k","panda","null","stimuli/desert_54.jpg","null","desert","A","non-repeat","null","111","stimuli/desert_54.jpg","","","","",""
"","","","","","image-keyboard-response","130","2.0.0","141832","psfbv10qd5k","panda","null","stimuli/woods_2.jpg","null","woods","B","non-repeat","null","112","stimuli/woods_2.jpg","","","","",""
"","","","","","image-keyboard-response","131","2.0.0","142838","psfbv10qd5k","panda","null","stimuli/gym_9.jpg","null","gym","C","non-repeat","null","113","stimuli/gym_9.jpg","","","","",""
"","","","","","image-keyboard-response","132","2.0.0","143842","psfbv10qd5k","panda","null","stimuli/playground_7.jpg","null","playground","J","non-repeat","null","114","stimuli/playground_7.jpg","","","","",""
"","","","","","image-keyboard-response","133","2.0.0","144848","psfbv10qd5k","panda","644","stimuli/bar_41.jpg"," ","bar","K","non-repeat","null","115","stimuli/bar_41.jpg","","","","",""
"","","","","","image-keyboard-response","134","2.0.0","145852","psfbv10qd5k","panda","null","stimuli/bathroom_57.jpg","null","bathroom","L","non-repeat","null","116","stimuli/bathroom_57.jpg","","","","",""
"","","","","","image-keyboard-response","135","2.0.0","146858","psfbv10qd5k","panda","null","stimuli/bridge_20.jpg","null","bridge","G","non-repeat","null","117","stimuli/bridge_20.jpg","","","","",""
"","","","","","image-keyboard-response","136","2.0.0","147863","psfbv10qd5k","panda","null","stimuli/street_47.jpg","null","street","H","non-repeat","null","118","stimuli/street_47.jpg","","","","",""
"","","","","","image-keyboard-response","137","2.0.0","148868","psfbv10qd5k","panda","null","stimuli/stream_31.jpg","null","stream","I","non-repeat","null","119","stimuli/stream_31.jpg","","","","",""
"","","","","","image-keyboard-response","138","2.0.0","149874","psfbv10qd5k","panda","null","stimuli/desert_54.jpg","null","desert","A","non-repeat","null","120","stimuli/desert_54.jpg","","","","",""
"","","","","","image-keyboard-response","139","2.0.0","150879","psfbv10qd5k","panda","null","stimuli/woods_2.jpg","null","woods","B","non-repeat","null","121","stimuli/woods_2.jpg","","","","",""
"","","","","","image-keyboard-response","140","2.0.0","151885","psfbv10qd5k","panda","null","stimuli/gym_9.jpg","null","gym","C","non-repeat","null","122","stimuli/gym_9.jpg","","","","",""
"","","","","","image-keyboard-response","141","2.0.0","152890","psfbv10qd5k","panda","368","stimuli/bridge_20.jpg"," ","bridge","G","non-repeat","null","123","stimuli/bridge_20.jpg","","","","",""
"","","","","","image-keyboard-response","142","2.0.0","153896","psfbv10qd5k","panda","null","stimuli/bridge_20.jpg","null","bridge","G","repeat"," ","123","","","","","",""
"","","","","","image-keyboard-response","143","2.0.0","154900","psfbv10qd5k","panda","null","stimuli/street_47.jpg","null","street","H","non-repeat","null","124","stimuli/street_47.jpg","","","","",""
"","","","","","image-keyboard-response","144","2.0.0","155905","psfbv10qd5k","panda","null","stimuli/stream_31.jpg","null","stream","I","non-repeat","null","125","stimuli/stream_31.jpg","","","","",""
"","","","","","image-keyboard-response","145","2.0.0","156910","psfbv10qd5k","panda","null","stimuli/stream_31.jpg","null","stream","I","repeat"," ","125","","","","","",""
"","","","","","image-keyboard-response","146","2.0.0","157915","psfbv10qd5k","panda","null","stimuli/playground_7.jpg","null","playground","J","non-repeat","null","126","stimuli/playground_7.jpg","","","","",""
"","","","","","image-keyboard-response","147","2.0.0","158920","psfbv10qd5k","panda","128","stimuli/bar_41.jpg"," ","bar","K","non-repeat","null","127","stimuli/bar_41.jpg","","","","",""
"","","","","","image-keyboard-response","148","2.0.0","159925","psfbv10qd5k","panda","null","stimuli/bathroom_57.jpg","null","bathroom","L","non-repeat","null","128","stimuli/bathroom_57.jpg","","","","",""
"","","","","","image-keyboard-response","149","2.0.0","160931","psfbv10qd5k","panda","null","stimuli/bathroom_57.jpg","null","bathroom","L","repeat"," ","128","","","","","",""
"","","","","","image-keyboard-response","150","2.0.0","161937","psfbv10qd5k","panda","null","stimuli/desert_54.jpg","null","desert","A","non-repeat","null","129","stimuli/desert_54.jpg","","","","",""
"","","","","","image-keyboard-response","151","2.0.0","162942","psfbv10qd5k","panda","null","stimuli/woods_2.jpg","null","woods","B","non-repeat","null","130","stimuli/woods_2.jpg","","","","",""
"","","","","","image-keyboard-response","152","2.0.0","163947","psfbv10qd5k","panda","728","stimuli/gym_9.jpg"," ","gym","C","non-repeat","null","131","stimuli/gym_9.jpg","","","","",""
"","","","","","image-keyboard-response","153","2.0.0","164952","psfbv10qd5k","panda","null","stimuli/playground_7.jpg","null","playground","J","non-repeat","null","132","stimuli/playground_7.jpg","","","","",""
"","","","","","image-keyboard-response","154","2.0.0","165958","psfbv10qd5k","panda","null","stimuli/bar_41.jpg","null","bar","K","non-repeat","null","133","stimuli/bar_41.jpg","","","","",""
"","","","","","image-keyboard-response","155","2.0.0","166963","psfbv10qd5k","panda","null","stimuli/bathroom_57.jpg","null","bathroom","L","non-repeat","null","134","stimuli/bathroom_57.jpg","","","","",""
"","","","","","image-keyboard-response","156","2.0.0","167968","psfbv10qd5k","panda","null","stimuli/desert_54.jpg","null","desert","A","non-repeat","null","135","stimuli/desert_54.jpg","","","","",""
"","","","","","image-keyboard-response","157","2.0.0","168974","psfbv10qd5k","panda","null","stimuli/woods_2.jpg","null","woods","B","non-repeat","null","136","stimuli/woods_2.jpg","","","","",""
"","","","","","image-keyboard-response","158","2.0.0","169979","psfbv10qd5k","panda","null","stimuli/gym_9.jpg","null","gym","C","non-repeat","null","137","stimuli/gym_9.jpg","","","","",""
"","","","","","image-keyboard-response","159","2.0.0","170984","psfbv10qd5k","panda","null","stimuli/playground_7.jpg","null","playground","J","non-repeat","null","138","stimuli/playground_7.jpg","","","","",""
"","","","","","image-keyboard-response","160","2.0.0","171989","psfbv10qd5k","panda","null","stimuli/bar_41.jpg","null","bar","K","non-repeat","null","139","stimuli/bar_41.jpg","","","","",""
"","","","","","image-keyboard-response","161","2.0.0","172994","psfbv10qd5k","panda","null","stimuli/bathroom_57.jpg","null","bathroom","L","non-repeat","null","140","stimuli/bathroom_57.jpg","","","","",""
"","","","","","image-keyboard-response","162","2.0.0","173998","psfbv10qd5k","panda","null","stimuli/bathroom_57.jpg","null","bathroom","L","repeat"," ","140","","","","","",""
"","","","","","image-keyboard-response","163","2.0.0","175003","psfbv10qd5k","panda","565","stimuli/coast_35.jpg"," ","coast","D","non-repeat","null","141","stimuli/coast_35.jpg","","","","",""
"","","","","","image-keyboard-response","164","2.0.0","176008","psfbv10qd5k","panda","null","stimuli/coast_35.jpg","null","coast","D","repeat"," ","141","","","","","",""
"","","","","","image-keyboard-response","165","2.0.0","177013","psfbv10qd5k","panda","null","stimuli/field_55.jpg","null","field","E","non-repeat","null","142","stimuli/field_55.jpg","","","","",""
"","","","","","image-keyboard-response","166","2.0.0","178017","psfbv10qd5k","panda","703","stimuli/kitchen_51.jpg"," ","kitchen","F","non-repeat","null","143","stimuli/kitchen_51.jpg","","","","",""
"","","","","","image-keyboard-response","167","2.0.0","179020","psfbv10qd5k","panda","null","stimuli/desert_54.jpg","null","desert","A","non-repeat","null","144","stimuli/desert_54.jpg","","","","",""
"","","","","","image-keyboard-response","168","2.0.0","180026","psfbv10qd5k","panda","308","stimuli/desert_54.jpg"," ","desert","A","repeat"," ","144","","","","","",""
"","","","","","image-keyboard-response","169","2.0.0","181031","psfbv10qd5k","panda","null","stimuli/woods_2.jpg","null","woods","B","non-repeat","null","145","stimuli/woods_2.jpg","","","","",""
"","","","","","image-keyboard-response","170","2.0.0","182036","psfbv10qd5k","panda","null","stimuli/gym_9.jpg","null","gym","C","non-repeat","null","146","stimuli/gym_9.jpg","","","","",""
"","","","","","image-keyboard-response","171","2.0.0","183041","psfbv10qd5k","panda","null","stimuli/playground_7.jpg","null","playground","J","non-repeat","null","147","stimuli/playground_7.jpg","","","","",""
"","","","","","image-keyboard-response","172","2.0.0","184045","psfbv10qd5k","panda","189","stimuli/playground_7.jpg"," ","playground","J","repeat"," ","147","","","","","",""
"","","","","","image-keyboard-response","173","2.0.0","185052","psfbv10qd5k","panda","null","stimuli/bar_41.jpg","null","bar","K","non-repeat","null","148","stimuli/bar_41.jpg","","","","",""
"","","","","","image-keyboard-response","174","2.0.0","186057","psfbv10qd5k","panda","667","stimuli/bathroom_57.jpg"," ","bathroom","L","non-repeat","null","149","stimuli/bathroom_57.jpg","","","","",""
"","","","","","image-keyboard-response","175","2.0.0","187062","psfbv10qd5k","panda","null","stimuli/bridge_20.jpg","null","bridge","G","non-repeat","null","150","stimuli/bridge_20.jpg","","","","",""
"","","","","","image-keyboard-response","176","2.0.0","188068","psfbv10qd5k","panda","511","stimuli/street_47.jpg"," ","street","H","non-repeat","null","151","stimuli/street_47.jpg","","","","",""
"","","","","","image-keyboard-response","177","2.0.0","189074","psfbv10qd5k","panda","null","stimuli/stream_31.jpg","null","stream","I","non-repeat","null","152","stimuli/stream_31.jpg","","","","",""
"","","","","","image-keyboard-response","178","2.0.0","190079","psfbv10qd5k","panda","null","stimuli/coast_35.jpg","null","coast","D","non-repeat","null","153","stimuli/coast_35.jpg","","","","",""
"","","","","","image-keyboard-response","179","2.0.0","191083","psfbv10qd5k","panda","null","stimuli/field_55.jpg","null","field","E","non-repeat","null","154","stimuli/field_55.jpg","","","","",""
"","","","","","image-keyboard-response","180","2.0.0","192089","psfbv10qd5k","panda","null","stimuli/kitchen_51.jpg","null","kitchen","F","non-repeat","null","155","stimuli/kitchen_51.jpg","","","","",""
"","","","","","image-keyboard-response","181","2.0.0","193093","psfbv10qd5k","panda","null","stimuli/playground_7.jpg","null","playground","J","non-repeat","null","156","stimuli/playground_7.jpg","","","","",""
"","","","","","image-keyboard-response","182","2.0.0","194099","psfbv10qd5k","panda","368","stimuli/bar_41.jpg"," ","bar","K","non-repeat","null","157","stimuli/bar_41.jpg","","","","",""
"","","","","","image-keyboard-response","183","2.0.0","195103","psfbv10qd5k","panda","null","stimuli/bathroom_57.jpg","null","bathroom","L","non-repeat","null","158","stimuli/bathroom_57.jpg","","","","",""
"","","","","","image-keyboard-response","184","2.0.0","196108","psfbv10qd5k","panda","null","stimuli/bathroom_57.jpg","null","bathroom","L","repeat"," ","158","","","","","",""
"","","","","","image-keyboard-response","185","2.0.0","197113","psfbv10qd5k","panda","null","stimuli/coast_35.jpg","null","coast","D","non-repeat","null","159","stimuli/coast_35.jpg","","","","",""
"","","","","","image-keyboard-response","186","2.0.0","198117","psfbv10qd5k","panda","null","stimuli/field_55.jpg","null","field","E","non-repeat","null","160","stimuli/field_55.jpg","","","","",""
"","","","","","image-keyboard-response","187","2.0.0","199122","psfbv10qd5k","panda","null","stimuli/kitchen_51.jpg","null","kitchen","F","non-repeat","null","161","stimuli/kitchen_51.jpg","","","","",""
"","","","","","image-keyboard-response","188","2.0.0","200127","psfbv10qd5k","panda","null","stimuli/playground_7.jpg","null","playground","J","non-repeat","null","162","stimuli/playground_7.jpg","","","","",""
"","","","","","image-keyboard-response","189","2.0.0","201132","psfbv10qd5k","panda","null","stimuli/bar_41.jpg","null","bar","K","non-repeat","null","163","stimuli/bar_41.jpg","","","","",""
"","","","","","image-keyboard-response","190","2.0.0","202137","psfbv10qd5k","panda","454","stimuli/bathroom_57.jpg"," ","bathroom","L","non-repeat","null","164","stimuli/bathroom_57.jpg","","","","",""
"","","","","","image-keyboard-response","191","2.0.0","203142","psfbv10qd5k","panda","null","stimuli/desert_54.jpg","null","desert","A","non-repeat","null","165","stimuli/desert_54.jpg","","","","",""
"","","","","","image-keyboard-response","192","2.0.0","204146","psfbv10qd5k","panda","null","stimuli/woods_2.jpg","null","woods","B","non-repeat","null","166","stimuli/woods_2.jpg","","","","",""
"","","","","","image-keyboard-response","193","2.0.0","205152","psfbv10qd5k","panda","null","stimuli/gym_9.jpg","null","gym","C","non-repeat","null","167","stimuli/gym_9.jpg","","","","",""
"","","","","","image-keyboard-response","194","2.0.0","206156","psfbv10qd5k","panda","603","stimuli/gym_9.jpg"," ","gym","C","repeat"," ","167","","","","","",""
"","","","","","image-keyboard-response","195","2.0.0","207159","psfbv10qd5k","panda","null","stimuli/coast_35.jpg","null","coast","D","non-repeat","null","168","stimuli/coast_35.jpg","","","","",""
"","","","","","image-keyboard-response","196","2.0.0","208165","psfbv10qd5k","panda","null","stimuli/coast_35.jpg","null","coast","D","repeat"," ","168","","","","","",""
"","","","","","image-keyboard-response","197","2.0.0","209169","psfbv10qd5k","panda","null","stimuli/field_55.jpg","null","field","E","non-repeat","null","169","stimuli/field_55.jpg","","","","",""
"","","","","","image-keyboard-response","198","2.0.0","210173","psfbv10qd5k","panda","null","stimuli/kitchen_51.jpg","null","kitchen","F","non-repeat","null","170","stimuli/kitchen_51.jpg","","","","",""
"","","","","","image-keyboard-response","199","2.0.0","211177","psfbv10qd5k","panda","null","stimuli/desert_54.jpg","null","desert","A","non-repeat","null","171","stimuli/desert_54.jpg","","","","",""
"","","","","","image-keyboard-response","200","2.0.0","212182","psfbv10qd5k","panda","null","stimuli/woods_2.jpg","null","woods","B","non-repeat","null","172","stimuli/woods_2.jpg","","","","",""
"","","","","","image-keyboard-response","201","2.0.0","213187","psfbv10qd5k","panda","591","stimuli/gym_9.jpg"," ","gym","C","non-repeat","null","173","stimuli/gym_9.jpg","","","","",""
"","","","","","image-keyboard-response","202","2.0.0","214193","psfbv10qd5k","panda","null","stimuli/coast_35.jpg","null","coast","D","non-repeat","null","174","stimuli/coast_35.jpg","","","","",""
"","","","","","image-keyboard-response","203","2.0.0","215198","psfbv10qd5k","panda","null","stimuli/field_55.jpg","null","field","E","non-repeat","null","175","stimuli/field_55.jpg","","","","",""
"","","","","","image-keyboard-response","204","2.0.0","216204","psfbv10qd5k","panda","733","stimuli/kitchen_51.jpg"," ","kitchen","F","non-repeat","null","176","stimuli/kitchen_51.jpg","","","","",""
"","","","","","image-keyboard-response","205","2.0.0","217209","psfbv10qd5k","panda","null","stimuli/bridge_20.jpg","null","bridge","G","non-repeat","null","177","stimuli/bridge_20.jpg","","","","",""
"","","","","","image-keyboard-response","206","2.0.0","218214","psfbv10qd5k","panda","null","stimuli/street_47.jpg","null","street","H","non-repeat","null","178","stimuli/street_47.jpg","","","","",""
"","","","","","image-keyboard-response","207","2.0.0","219219","psfbv10qd5k","panda","511","stimuli/stream_31.jpg"," ","stream","I","non-repeat","null","179","stimuli/stream_31.jpg","","","","",""
"","","","","","image-keyboard-response","208","2.0.0","220224","psfbv10qd5k","panda","791","stimuli/coast_35.jpg"," ","coast","D","non-repeat","null","180","stimuli/coast_35.jpg","","","","",""
"","","","","","image-keyboard-response","209","2.0.0","221228","psfbv10qd5k","panda","null","stimuli/field_55.jpg","null","field","E","non-repeat","null","181","stimuli/field_55.jpg","","","","",""
"","","","","","image-keyboard-response","210","2.0.0","222232","psfbv10qd5k","panda","null","stimuli/kitchen_51.jpg","null","kitchen","F","non-repeat","null","182","stimuli/kitchen_51.jpg","","","","",""
"","","","","","image-keyboard-response","211","2.0.0","223237","psfbv10qd5k","panda","null","stimuli/kitchen_51.jpg","null","kitchen","F","repeat"," ","182","","","","","",""
"","","","","","image-keyboard-response","212","2.0.0","224242","psfbv10qd5k","panda","null","stimuli/desert_54.jpg","null","desert","A","non-repeat","null","183","stimuli/desert_54.jpg","","","","",""
"","","","","","image-keyboard-response","213","2.0.0","225247","psfbv10qd5k","panda","null","stimuli/woods_2.jpg","null","woods","B","non-repeat","null","184","stimuli/woods_2.jpg","","","","",""
"","","","","","image-keyboard-response","214","2.0.0","226252","psfbv10qd5k","panda","null","stimuli/gym_9.jpg","null","gym","C","non-repeat","null","185","stimuli/gym_9.jpg","","","","",""
"","","","","","image-keyboard-response","215","2.0.0","227256","psfbv10qd5k","panda","null","stimuli/bridge_20.jpg","null","bridge","G","non-repeat","null","186","stimuli/bridge_20.jpg","","","","",""
"","","","","","image-keyboard-response","216","2.0.0","228261","psfbv10qd5k","panda","null","stimuli/street_47.jpg","null","street","H","non-repeat","null","187","stimuli/street_47.jpg","","","","",""
"","","","","","image-keyboard-response","217","2.0.0","229266","psfbv10qd5k","panda","246","stimuli/stream_31.jpg"," ","stream","I","non-repeat","null","188","stimuli/stream_31.jpg","","","","",""
"","","","","","image-keyboard-response","218","2.0.0","230270","psfbv10qd5k","panda","null","stimuli/desert_54.jpg","null","desert","A","non-repeat","null","189","stimuli/desert_54.jpg","","","","",""
"","","","","","image-keyboard-response","219","2.0.0","231275","psfbv10qd5k","panda","392","stimuli/woods_2.jpg"," ","woods","B","non-repeat","null","190","stimuli/woods_2.jpg","","","","",""
"","","","","","image-keyboard-response","220","2.0.0","232280","psfbv10qd5k","panda","null","stimuli/gym_9.jpg","null","gym","C","non-repeat","null","191","stimuli/gym_9.jpg","","","","",""
"","","","","","image-keyboard-response","221","2.0.0","233285","psfbv10qd5k","panda","null","stimuli/playground_7.jpg","null","playground","J","non-repeat","null","192","stimuli/playground_7.jpg","","","","",""
"","","","","","image-keyboard-response","222","2.0.0","234289","psfbv10qd5k","panda","null","stimuli/bar_41.jpg","null","bar","K","non-repeat","null","193","stimuli/bar_41.jpg","","","","",""
"","","","","","image-keyboard-response","223","2.0.0","235292","psfbv10qd5k","panda","null","stimuli/bathroom_57.jpg","null","bathroom","L","non-repeat","null","194","stimuli/bathroom_57.jpg","","","","",""
"","","","","","image-keyboard-response","224","2.0.0","236297","psfbv10qd5k","panda","null","stimuli/desert_54.jpg","null","desert","A","non-repeat","null","195","stimuli/desert_54.jpg","","","","",""
"","","","","","image-keyboard-response","225","2.0.0","237301","psfbv10qd5k","panda","null","stimuli/woods_2.jpg","null","woods","B","non-repeat","null","196","stimuli/woods_2.jpg","","","","",""
"","","","","","image-keyboard-response","226","2.0.0","238306","psfbv10qd5k","panda","null","stimuli/gym_9.jpg","null","gym","C","non-repeat","null","197","stimuli/gym_9.jpg","","","","",""
"","","","","","image-keyboard-response","227","2.0.0","239310","psfbv10qd5k","panda","211","stimuli/coast_35.jpg"," ","coast","D","non-repeat","null","198","stimuli/coast_35.jpg","","","","",""
"","","","","","image-keyboard-response","228","2.0.0","240314","psfbv10qd5k","panda","null","stimuli/field_55.jpg","null","field","E","non-repeat","null","199","stimuli/field_55.jpg","","","","",""
"","","","","","image-keyboard-response","229","2.0.0","241318","psfbv10qd5k","panda","null","stimuli/kitchen_51.jpg","null","kitchen","F","non-repeat","null","200","stimuli/kitchen_51.jpg","","","","",""
"","","","","","image-keyboard-response","230","2.0.0","242325","psfbv10qd5k","panda","446","stimuli/desert_54.jpg"," ","desert","A","non-repeat","null","201","stimuli/desert_54.jpg","","","","",""
"","","","","","image-keyboard-response","231","2.0.0","243329","psfbv10qd5k","panda","null","stimuli/desert_54.jpg","null","desert","A","repeat"," ","201","","","","","",""
"","","","","","image-keyboard-response","232","2.0.0","244333","psfbv10qd5k","panda","null","stimuli/woods_2.jpg","null","woods","B","non-repeat","null","202","stimuli/woods_2.jpg","","","","",""
"","","","","","image-keyboard-response","233","2.0.0","245338","psfbv10qd5k","panda","224","stimuli/gym_9.jpg"," ","gym","C","non-repeat","null","203","stimuli/gym_9.jpg","","","","",""
"","","","","","image-keyboard-response","234","2.0.0","246343","psfbv10qd5k","panda","null","stimuli/bridge_20.jpg","null","bridge","G","non-repeat","null","204","stimuli/bridge_20.jpg","","","","",""
"","","","","","image-keyboard-response","235","2.0.0","247346","psfbv10qd5k","panda","null","stimuli/bridge_20.jpg","null","bridge","G","repeat"," ","204","","","","","",""
"","","","","","image-keyboard-response","236","2.0.0","248350","psfbv10qd5k","panda","null","stimuli/street_47.jpg","null","street","H","non-repeat","null","205","stimuli/street_47.jpg","","","","",""
"","","","","","image-keyboard-response","237","2.0.0","249353","psfbv10qd5k","panda","null","stimuli/stream_31.jpg","null","stream","I","non-repeat","null","206","stimuli/stream_31.jpg","","","","",""
"","","","","","image-keyboard-response","238","2.0.0","250358","psfbv10qd5k","panda","null","stimuli/stream_31.jpg","null","stream","I","repeat"," ","206","","","","","",""
"","","","","","image-keyboard-response","239","2.0.0","251361","psfbv10qd5k","panda","null","stimuli/playground_7.jpg","null","playground","J","non-repeat","null","207","stimuli/playground_7.jpg","","","","",""
"","","","","","image-keyboard-response","240","2.0.0","252365","psfbv10qd5k","panda","null","stimuli/bar_41.jpg","null","bar","K","non-repeat","null","208","stimuli/bar_41.jpg","","","","",""
"","","","","","image-keyboard-response","241","2.0.0","253370","psfbv10qd5k","panda","null","stimuli/bathroom_57.jpg","null","bathroom","L","non-repeat","null","209","stimuli/bathroom_57.jpg","","","","",""
"","","","","","image-keyboard-response","242","2.0.0","254374","psfbv10qd5k","panda","null","stimuli/bathroom_57.jpg","null","bathroom","L","repeat"," ","209","","","","","",""
"","","","","","image-keyboard-response","243","2.0.0","255378","psfbv10qd5k","panda","null","stimuli/coast_35.jpg","null","coast","D","non-repeat","null","210","stimuli/coast_35.jpg","","","","",""
"","","","","","image-keyboard-response","244","2.0.0","256383","psfbv10qd5k","panda","135","stimuli/field_55.jpg"," ","field","E","non-repeat","null","211","stimuli/field_55.jpg","","","","",""
"","","","","","image-keyboard-response","245","2.0.0","257386","psfbv10qd5k","panda","296","stimuli/kitchen_51.jpg"," ","kitchen","F","non-repeat","null","212","stimuli/kitchen_51.jpg","","","","",""
"","","","","","image-keyboard-response","246","2.0.0","258391","psfbv10qd5k","panda","null","stimuli/bridge_20.jpg","null","bridge","G","non-repeat","null","213","stimuli/bridge_20.jpg","","","","",""
"","","","","","image-keyboard-response","247","2.0.0","259396","psfbv10qd5k","panda","null","stimuli/bridge_20.jpg","null","bridge","G","repeat"," ","213","","","","","",""
"","","","","","image-keyboard-response","248","2.0.0","260400","psfbv10qd5k","panda","null","stimuli/street_47.jpg","null","street","H","non-repeat","null","214","stimuli/street_47.jpg","","","","",""
"","","","","","image-keyboard-response","249","2.0.0","261406","psfbv10qd5k","panda","306","stimuli/stream_31.jpg"," ","stream","I","non-repeat","null","215","stimuli/stream_31.jpg","","","","",""
"","","","","","image-keyboard-response","250","2.0.0","262410","psfbv10qd5k","panda","null","stimuli/coast_35.jpg","null","coast","D","non-repeat","null","216","stimuli/coast_35.jpg","","","","",""
"","","","","","image-keyboard-response","251","2.0.0","263415","psfbv10qd5k","panda","null","stimuli/field_55.jpg","null","field","E","non-repeat","null","217","stimuli/field_55.jpg","","","","",""
"","","","","","image-keyboard-response","252","2.0.0","264425","psfbv10qd5k","panda","null","stimuli/kitchen_51.jpg","null","kitchen","F","non-repeat","null","218","stimuli/kitchen_51.jpg","","","","",""
"","","","","","image-keyboard-response","253","2.0.0","265430","psfbv10qd5k","panda","null","stimuli/kitchen_51.jpg","null","kitchen","F","repeat"," ","218","","","","","",""
"","","","","","image-keyboard-response","254","2.0.0","266435","psfbv10qd5k","panda","null","stimuli/bridge_20.jpg","null","bridge","G","non-repeat","null","219","stimuli/bridge_20.jpg","","","","",""
"","","","","","image-keyboard-response","255","2.0.0","267441","psfbv10qd5k","panda","47","stimuli/street_47.jpg"," ","street","H","non-repeat","null","220","stimuli/street_47.jpg","","","","",""
"","","","","","image-keyboard-response","256","2.0.0","268447","psfbv10qd5k","panda","null","stimuli/stream_31.jpg","null","stream","I","non-repeat","null","221","stimuli/stream_31.jpg","","","","",""
"","","","","","image-keyboard-response","257","2.0.0","269456","psfbv10qd5k","panda","null","stimuli/coast_35.jpg","null","coast","D","non-repeat","null","222","stimuli/coast_35.jpg","","","","",""
"","","","","","image-keyboard-response","258","2.0.0","270460","psfbv10qd5k","panda","null","stimuli/coast_35.jpg","null","coast","D","repeat"," ","222","","","","","",""
"","","","","","image-keyboard-response","259","2.0.0","271464","psfbv10qd5k","panda","null","stimuli/field_55.jpg","null","field","E","non-repeat","null","223","stimuli/field_55.jpg","","","","",""
"","","","","","image-keyboard-response","260","2.0.0","272469","psfbv10qd5k","panda","null","stimuli/kitchen_51.jpg","null","kitchen","F","non-repeat","null","224","stimuli/kitchen_51.jpg","","","","",""
"","","","","","image-keyboard-response","261","2.0.0","273473","psfbv10qd5k","panda","null","stimuli/playground_7.jpg","null","playground","J","non-repeat","null","225","stimuli/playground_7.jpg","","","","",""
"","","","","","image-keyboard-response","262","2.0.0","274477","psfbv10qd5k","panda","null","stimuli/bar_41.jpg","null","bar","K","non-repeat","null","226","stimuli/bar_41.jpg","","","","",""
"","","","","","image-keyboard-response","263","2.0.0","275483","psfbv10qd5k","panda","517","stimuli/bathroom_57.jpg"," ","bathroom","L","non-repeat","null","227","stimuli/bathroom_57.jpg","","","","",""
"","","","","","image-keyboard-response","264","2.0.0","276488","psfbv10qd5k","panda","null","stimuli/bathroom_57.jpg","null","bathroom","L","repeat"," ","227","","","","","",""
"","","","","","image-keyboard-response","265","2.0.0","277493","psfbv10qd5k","panda","null","stimuli/desert_54.jpg","null","desert","A","non-repeat","null","228","stimuli/desert_54.jpg","","","","",""
"","","","","","image-keyboard-response","266","2.0.0","278497","psfbv10qd5k","panda","null","stimuli/woods_2.jpg","null","woods","B","non-repeat","null","229","stimuli/woods_2.jpg","","","","",""
"","","","","","image-keyboard-response","267","2.0.0","279503","psfbv10qd5k","panda","null","stimuli/gym_9.jpg","null","gym","C","non-repeat","null","230","stimuli/gym_9.jpg","","","","",""
"","","","","","image-keyboard-response","268","2.0.0","280509","psfbv10qd5k","panda","141","stimuli/playground_7.jpg"," ","playground","J","non-repeat","null","231","stimuli/playground_7.jpg","","","","",""
"","","","","","image-keyboard-response","269","2.0.0","281513","psfbv10qd5k","panda","null","stimuli/bar_41.jpg","null","bar","K","non-repeat","null","232","stimuli/bar_41.jpg","","","","",""
"","","","","","image-keyboard-response","270","2.0.0","282518","psfbv10qd5k","panda","null","stimuli/bathroom_57.jpg","null","bathroom","L","non-repeat","null","233","stimuli/bathroom_57.jpg","","","","",""
"","","","","","image-keyboard-response","271","2.0.0","283522","psfbv10qd5k","panda","230","stimuli/desert_54.jpg"," ","desert","A","non-repeat","null","234","stimuli/desert_54.jpg","","","","",""
"","","","","","image-keyboard-response","272","2.0.0","284527","psfbv10qd5k","panda","null","stimuli/woods_2.jpg","null","woods","B","non-repeat","null","235","stimuli/woods_2.jpg","","","","",""
"","","","","","image-keyboard-response","273","2.0.0","285532","psfbv10qd5k","panda","null","stimuli/gym_9.jpg","null","gym","C","non-repeat","null","236","stimuli/gym_9.jpg","","","","",""
"","","","","","image-keyboard-response","274","2.0.0","286537","psfbv10qd5k","panda","null","stimuli/playground_7.jpg","null","playground","J","non-repeat","null","237","stimuli/playground_7.jpg","","","","",""
"","","","","","image-keyboard-response","275","2.0.0","287542","psfbv10qd5k","panda","650","stimuli/bar_41.jpg"," ","bar","K","non-repeat","null","238","stimuli/bar_41.jpg","","","","",""
"","","","","","image-keyboard-response","276","2.0.0","288548","psfbv10qd5k","panda","null","stimuli/bathroom_57.jpg","null","bathroom","L","non-repeat","null","239","stimuli/bathroom_57.jpg","","","","",""
"","","","","","image-keyboard-response","277","2.0.0","289552","psfbv10qd5k","panda","null","stimuli/bridge_20.jpg","null","bridge","G","non-repeat","null","240","stimuli/bridge_20.jpg","","","","",""
"","","","","","image-keyboard-response","278","2.0.0","290557","psfbv10qd5k","panda","null","stimuli/street_47.jpg","null","street","H","non-repeat","null","241","stimuli/street_47.jpg","","","","",""
"","","","","","image-keyboard-response","279","2.0.0","291561","psfbv10qd5k","panda","911","stimuli/stream_31.jpg"," ","stream","I","non-repeat","null","242","stimuli/stream_31.jpg","","","","",""
"","","","","","image-keyboard-response","280","2.0.0","292565","psfbv10qd5k","panda","null","stimuli/desert_54.jpg","null","desert","A","non-repeat","null","243","stimuli/desert_54.jpg","","","","",""
"","","","","","image-keyboard-response","281","2.0.0","293571","psfbv10qd5k","panda","null","stimuli/desert_54.jpg","null","desert","A","repeat"," ","243","","","","","",""
"","","","","","image-keyboard-response","282","2.0.0","294576","psfbv10qd5k","panda","null","stimuli/woods_2.jpg","null","woods","B","non-repeat","null","244","stimuli/woods_2.jpg","","","","",""
"","","","","","image-keyboard-response","283","2.0.0","295580","psfbv10qd5k","panda","995","stimuli/gym_9.jpg"," ","gym","C","non-repeat","null","245","stimuli/gym_9.jpg","","","","",""
"","","","","","image-keyboard-response","284","2.0.0","296585","psfbv10qd5k","panda","null","stimuli/playground_7.jpg","null","playground","J","non-repeat","null","246","stimuli/playground_7.jpg","","","","",""
"","","","","","image-keyboard-response","285","2.0.0","297591","psfbv10qd5k","panda","null","stimuli/bar_41.jpg","null","bar","K","non-repeat","null","247","stimuli/bar_41.jpg","","","","",""
"","","","","","image-keyboard-response","286","2.0.0","298595","psfbv10qd5k","panda","398","stimuli/bathroom_57.jpg"," ","bathroom","L","non-repeat","null","248","stimuli/bathroom_57.jpg","","","","",""
"","","","","","image-keyboard-response","287","2.0.0","299600","psfbv10qd5k","panda","null","stimuli/desert_54.jpg","null","desert","A","non-repeat","null","249","stimuli/desert_54.jpg","","","","",""
"","","","","","image-keyboard-response","288","2.0.0","300607","psfbv10qd5k","panda","null","stimuli/desert_54.jpg","null","desert","A","repeat"," ","249","","","","","",""
"","","","","","image-keyboard-response","289","2.0.0","301612","psfbv10qd5k","panda","158","stimuli/woods_2.jpg"," ","woods","B","non-repeat","null","250","stimuli/woods_2.jpg","","","","",""
"","","","","","image-keyboard-response","290","2.0.0","302617","psfbv10qd5k","panda","null","stimuli/gym_9.jpg","null","gym","C","non-repeat","null","251","stimuli/gym_9.jpg","","","","",""
"","","","","","image-keyboard-response","291","2.0.0","303623","psfbv10qd5k","panda","null","stimuli/gym_9.jpg","null","gym","C","repeat"," ","251","","","","","",""
"","","","","","image-keyboard-response","292","2.0.0","304628","psfbv10qd5k","panda","865","stimuli/playground_7.jpg"," ","playground","J","non-repeat","null","252","stimuli/playground_7.jpg","","","","",""
"","","","","","image-keyboard-response","293","2.0.0","305634","psfbv10qd5k","panda","null","stimuli/playground_7.jpg","null","playground","J","repeat"," ","252","","","","","",""
"","","","","","image-keyboard-response","294","2.0.0","306640","psfbv10qd5k","panda","null","stimuli/bar_41.jpg","null","bar","K","non-repeat","null","253","stimuli/bar_41.jpg","","","","",""
"","","","","","image-keyboard-response","295","2.0.0","307645","psfbv10qd5k","panda","65","stimuli/bathroom_57.jpg"," ","bathroom","L","non-repeat","null","254","stimuli/bathroom_57.jpg","","","","",""
"","","","","","image-keyboard-response","296","2.0.0","308650","psfbv10qd5k","panda","null","stimuli/coast_35.jpg","null","coast","D","non-repeat","null","255","stimuli/coast_35.jpg","","","","",""
"","","","","","image-keyboard-response","297","2.0.0","309655","psfbv10qd5k","panda","null","stimuli/coast_35.jpg","null","coast","D","repeat"," ","255","","","","","",""
"","","","","","image-keyboard-response","298","2.0.0","310660","psfbv10qd5k","panda","null","stimuli/field_55.jpg","null","field","E","non-repeat","null","256","stimuli/field_55.jpg","","","","",""
"","","","","","image-keyboard-response","299","2.0.0","311665","psfbv10qd5k","panda","null","stimuli/kitchen_51.jpg","null","kitchen","F","non-repeat","null","257","stimuli/kitchen_51.jpg","","","","",""
"","","","","","image-keyboard-response","300","2.0.0","312670","psfbv10qd5k","panda","null","stimuli/bridge_20.jpg","null","bridge","G","non-repeat","null","258","stimuli/bridge_20.jpg","","","","",""
"","","","","","image-keyboard-response","301","2.0.0","313674","psfbv10qd5k","panda","null","stimuli/street_47.jpg","null","street","H","non-repeat","null","259","stimuli/street_47.jpg","","","","",""
"","","","","","image-keyboard-response","302","2.0.0","314679","psfbv10qd5k","panda","454","stimuli/stream_31.jpg"," ","stream","I","non-repeat","null","260","stimuli/stream_31.jpg","","","","",""
"","","","","","image-keyboard-response","303","2.0.0","315684","psfbv10qd5k","panda","null","stimuli/desert_54.jpg","null","desert","A","non-repeat","null","261","stimuli/desert_54.jpg","","","","",""
"","","","","","image-keyboard-response","304","2.0.0","316688","psfbv10qd5k","panda","null","stimuli/woods_2.jpg","null","woods","B","non-repeat","null","262","stimuli/woods_2.jpg","","","","",""
"","","","","","image-keyboard-response","305","2.0.0","317693","psfbv10qd5k","panda","189","stimuli/gym_9.jpg"," ","gym","C","non-repeat","null","263","stimuli/gym_9.jpg","","","","",""
"","","","","","image-keyboard-response","306","2.0.0","318697","psfbv10qd5k","panda","null","stimuli/coast_35.jpg","null","coast","D","non-repeat","null","264","stimuli/coast_35.jpg","","","","",""
"","","","","","image-keyboard-response","307","2.0.0","319702","psfbv10qd5k","panda","null","stimuli/field_55.jpg","null","field","E","non-repeat","null","265","stimuli/field_55.jpg","","","","",""
"","","","","","image-keyboard-response","308","2.0.0","320708","psfbv10qd5k","panda","197","stimuli/kitchen_51.jpg"," ","kitchen","F","non-repeat","null","266","stimuli/kitchen_51.jpg","","","","",""
"","","","","","image-keyboard-response","309","2.0.0","321712","psfbv10qd5k","panda","null","stimuli/desert_54.jpg","null","desert","A","non-repeat","null","267","stimuli/desert_54.jpg","","","","",""
"","","","","","image-keyboard-response","310","2.0.0","322717","psfbv10qd5k","panda","null","stimuli/woods_2.jpg","null","woods","B","non-repeat","null","268","stimuli/woods_2.jpg","","","","",""
"","","","","","image-keyboard-response","311","2.0.0","323722","psfbv10qd5k","panda","null","stimuli/gym_9.jpg","null","gym","C","non-repeat","null","269","stimuli/gym_9.jpg","","","","",""
"","","","","","image-keyboard-response","312","2.0.0","324727","psfbv10qd5k","panda","699","stimuli/bridge_20.jpg"," ","bridge","G","non-repeat","null","270","stimuli/bridge_20.jpg","","","","",""
"","","","","","image-keyboard-response","313","2.0.0","325731","psfbv10qd5k","panda","null","stimuli/street_47.jpg","null","street","H","non-repeat","null","271","stimuli/street_47.jpg","","","","",""
"","","","","","image-keyboard-response","314","2.0.0","326736","psfbv10qd5k","panda","null","stimuli/stream_31.jpg","null","stream","I","non-repeat","null","272","stimuli/stream_31.jpg","","","","",""
"","","","","","image-keyboard-response","315","2.0.0","327739","psfbv10qd5k","panda","null","stimuli/desert_54.jpg","null","desert","A","non-repeat","null","273","stimuli/desert_54.jpg","","","","",""
"","","","","","image-keyboard-response","316","2.0.0","328743","psfbv10qd5k","panda","null","stimuli/desert_54.jpg","null","desert","A","repeat"," ","273","","","","","",""
"","","","","","image-keyboard-response","317","2.0.0","329748","psfbv10qd5k","panda","338","stimuli/woods_2.jpg"," ","woods","B","non-repeat","null","274","stimuli/woods_2.jpg","","","","",""
"","","","","","image-keyboard-response","318","2.0.0","330752","psfbv10qd5k","panda","null","stimuli/gym_9.jpg","null","gym","C","non-repeat","null","275","stimuli/gym_9.jpg","","","","",""
"","","","","","image-keyboard-response","319","2.0.0","331758","psfbv10qd5k","panda","null","stimuli/bridge_20.jpg","null","bridge","G","non-repeat","null","276","stimuli/bridge_20.jpg","","","","",""
"","","","","","image-keyboard-response","320","2.0.0","332762","psfbv10qd5k","panda","392","stimuli/street_47.jpg"," ","street","H","non-repeat","null","277","stimuli/street_47.jpg","","","","",""
"","","","","","image-keyboard-response","321","2.0.0","333765","psfbv10qd5k","panda","835","stimuli/stream_31.jpg"," ","stream","I","non-repeat","null","278","stimuli/stream_31.jpg","","","","",""
"","","","","","image-keyboard-response","322","2.0.0","334770","psfbv10qd5k","panda","null","stimuli/stream_31.jpg","null","stream","I","repeat"," ","278","","","","","",""
"","","","","","image-keyboard-response","323","2.0.0","335774","psfbv10qd5k","panda","null","stimuli/desert_54.jpg","null","desert","A","non-repeat","null","279","stimuli/desert_54.jpg","","","","",""
"","","","","","image-keyboard-response","324","2.0.0","336779","psfbv10qd5k","panda","null","stimuli/woods_2.jpg","null","woods","B","non-repeat","null","280","stimuli/woods_2.jpg","","","","",""
"","","","","","image-keyboard-response","325","2.0.0","337784","psfbv10qd5k","panda","null","stimuli/gym_9.jpg","null","gym","C","non-repeat","null","281","stimuli/gym_9.jpg","","","","",""
"","","","","","image-keyboard-response","326","2.0.0","338788","psfbv10qd5k","panda","null","stimuli/coast_35.jpg","null","coast","D","non-repeat","null","282","stimuli/coast_35.jpg","","","","",""
"","","","","","image-keyboard-response","327","2.0.0","339794","psfbv10qd5k","panda","null","stimuli/field_55.jpg","null","field","E","non-repeat","null","283","stimuli/field_55.jpg","","","","",""
"","","","","","image-keyboard-response","328","2.0.0","340798","psfbv10qd5k","panda","null","stimuli/kitchen_51.jpg","null","kitchen","F","non-repeat","null","284","stimuli/kitchen_51.jpg","","","","",""
"","","","","","image-keyboard-response","329","2.0.0","341803","psfbv10qd5k","panda","null","stimuli/playground_7.jpg","null","playground","J","non-repeat","null","285","stimuli/playground_7.jpg","","","","",""
"","","","","","image-keyboard-response","330","2.0.0","342807","psfbv10qd5k","panda","null","stimuli/bar_41.jpg","null","bar","K","non-repeat","null","286","stimuli/bar_41.jpg","","","","",""
"","","","","","image-keyboard-response","331","2.0.0","343810","psfbv10qd5k","panda","null","stimuli/bathroom_57.jpg","null","bathroom","L","non-repeat","null","287","stimuli/bathroom_57.jpg","","","","",""
"","","","","","image-keyboard-response","332","2.0.0","344815","psfbv10qd5k","panda","545","stimuli/desert_54.jpg"," ","desert","A","non-repeat","null","288","stimuli/desert_54.jpg","","","","",""
"","","","","","image-keyboard-response","333","2.0.0","345820","psfbv10qd5k","panda","null","stimuli/woods_2.jpg","null","woods","B","non-repeat","null","289","stimuli/woods_2.jpg","","","","",""
"","","","","","image-keyboard-response","334","2.0.0","346824","psfbv10qd5k","panda","40","stimuli/gym_9.jpg"," ","gym","C","non-repeat","null","290","stimuli/gym_9.jpg","","","","",""
"","","","","","image-keyboard-response","335","2.0.0","347828","psfbv10qd5k","panda","749","stimuli/playground_7.jpg"," ","playground","J","non-repeat","null","291","stimuli/playground_7.jpg","","","","",""
"","","","","","image-keyboard-response","336","2.0.0","348830","psfbv10qd5k","panda","null","stimuli/bar_41.jpg","null","bar","K","non-repeat","null","292","stimuli/bar_41.jpg","","","","",""
"","","","","","image-keyboard-response","337","2.0.0","349834","psfbv10qd5k","panda","76","stimuli/bathroom_57.jpg"," ","bathroom","L","non-repeat","null","293","stimuli/bathroom_57.jpg","","","","",""
"","","","","","image-keyboard-response","338","2.0.0","350838","psfbv10qd5k","panda","null","stimuli/coast_35.jpg","null","coast","D","non-repeat","null","294","stimuli/coast_35.jpg","","","","",""
"","","","","","image-keyboard-response","339","2.0.0","351843","psfbv10qd5k","panda","455","stimuli/coast_35.jpg"," ","coast","D","repeat"," ","294","","","","","",""
"","","","","","image-keyboard-response","340","2.0.0","352847","psfbv10qd5k","panda","null","stimuli/field_55.jpg","null","field","E","non-repeat","null","295","stimuli/field_55.jpg","","","","",""
"","","","","","image-keyboard-response","341","2.0.0","353850","psfbv10qd5k","panda","365","stimuli/kitchen_51.jpg"," ","kitchen","F","non-repeat","null","296","stimuli/kitchen_51.jpg","","","","",""
"","","","","","image-keyboard-response","342","2.0.0","354854","psfbv10qd5k","panda","null","stimuli/bridge_20.jpg","null","bridge","G","non-repeat","null","297","stimuli/bridge_20.jpg","","","","",""
"","","","","","image-keyboard-response","343","2.0.0","355857","psfbv10qd5k","panda","null","stimuli/street_47.jpg","null","street","H","non-repeat","null","298","stimuli/street_47.jpg","","","","",""
"","","","","","image-keyboard-response","344","2.0.0","356861","psfbv10qd5k","panda","null","stimuli/stream_31.jpg","null","stream","I","non-repeat","null","299","stimuli/stream_31.jpg","","","","",""
"","","","","","image-keyboard-response","345","2.0.0","357866","psfbv10qd5k","panda","null","stimuli/playground_7.jpg","null","playground","J","non-repeat","null","300","stimuli/playground_7.jpg","","","","",""
"","","","","","image-keyboard-response","346","2.0.0","358869","psfbv10qd5k","panda","115","stimuli/bar_41.jpg"," ","bar","K","non-repeat","null","301","stimuli/bar_41.jpg","","","","",""
"","","","","","image-keyboard-response","347","2.0.0","359874","psfbv10qd5k","panda","null","stimuli/bathroom_57.jpg","null","bathroom","L","non-repeat","null","302","stimuli/bathroom_57.jpg","","","","",""
"","","","","","image-keyboard-response","348","2.0.0","360879","psfbv10qd5k","panda","356","stimuli/bathroom_57.jpg"," ","bathroom","L","repeat"," ","302","","","","","",""
"","","","","","image-keyboard-response","349","2.0.0","361884","psfbv10qd5k","panda","null","stimuli/bridge_20.jpg","null","bridge","G","non-repeat","null","303","stimuli/bridge_20.jpg","","","","",""
"","","","","","image-keyboard-response","350","2.0.0","362889","psfbv10qd5k","panda","null","stimuli/street_47.jpg","null","street","H","non-repeat","null","304","stimuli/street_47.jpg","","","","",""
"","","","","","image-keyboard-response","351","2.0.0","363893","psfbv10qd5k","panda","null","stimuli/stream_31.jpg","null","stream","I","non-repeat","null","305","stimuli/stream_31.jpg","","","","",""
"","","","","","image-keyboard-response","352","2.0.0","364897","psfbv10qd5k","panda","null","stimuli/stream_31.jpg","null","stream","I","repeat"," ","305","","","","","",""
"","","","","","image-keyboard-response","353","2.0.0","365903","psfbv10qd5k","panda","null","stimuli/coast_35.jpg","null","coast","D","non-repeat","null","306","stimuli/coast_35.jpg","","","","",""
"","","","","","image-keyboard-response","354","2.0.0","366907","psfbv10qd5k","panda","null","stimuli/field_55.jpg","null","field","E","non-repeat","null","307","stimuli/field_55.jpg","","","","",""
"","","","","","image-keyboard-response","355","2.0.0","367911","psfbv10qd5k","panda","null","stimuli/kitchen_51.jpg","null","kitchen","F","non-repeat","null","308","stimuli/kitchen_51.jpg","","","","",""
"","","","","","image-keyboard-response","356","2.0.0","368914","psfbv10qd5k","panda","874","stimuli/desert_54.jpg"," ","desert","A","non-repeat","null","309","stimuli/desert_54.jpg","","","","",""
"","","","","","image-keyboard-response","357","2.0.0","369918","psfbv10qd5k","panda","null","stimuli/desert_54.jpg","null","desert","A","repeat"," ","309","","","","","",""
"","","","","","image-keyboard-response","358","2.0.0","370923","psfbv10qd5k","panda","480","stimuli/woods_2.jpg"," ","woods","B","non-repeat","null","310","stimuli/woods_2.jpg","","","","",""
"","","","","","image-keyboard-response","359","2.0.0","371928","psfbv10qd5k","panda","null","stimuli/gym_9.jpg","null","gym","C","non-repeat","null","311","stimuli/gym_9.jpg","","","","",""
"","","","","","image-keyboard-response","360","2.0.0","372933","psfbv10qd5k","panda","null","stimuli/coast_35.jpg","null","coast","D","non-repeat","null","312","stimuli/coast_35.jpg","","","","",""
"","","","","","image-keyboard-response","361","2.0.0","373937","psfbv10qd5k","panda","null","stimuli/field_55.jpg","null","field","E","non-repeat","null","313","stimuli/field_55.jpg","","","","",""
"","","","","","image-keyboard-response","362","2.0.0","374941","psfbv10qd5k","panda","284","stimuli/kitchen_51.jpg"," ","kitchen","F","non-repeat","null","314","stimuli/kitchen_51.jpg","","","","",""
"","","","","","image-keyboard-response","363","2.0.0","375946","psfbv10qd5k","panda","498","stimuli/kitchen_51.jpg"," ","kitchen","F","repeat"," ","314","","","","","",""
"","","","","","image-keyboard-response","364","2.0.0","376952","psfbv10qd5k","panda","null","stimuli/playground_7.jpg","null","playground","J","non-repeat","null","315","stimuli/playground_7.jpg","","","","",""
"","","","","","image-keyboard-response","365","2.0.0","377956","psfbv10qd5k","panda","338","stimuli/playground_7.jpg"," ","playground","J","repeat"," ","315","","","","","",""
"","","","","","image-keyboard-response","366","2.0.0","378961","psfbv10qd5k","panda","null","stimuli/bar_41.jpg","null","bar","K","non-repeat","null","316","stimuli/bar_41.jpg","","","","",""
"","","","","","image-keyboard-response","367","2.0.0","379966","psfbv10qd5k","panda","null","stimuli/bathroom_57.jpg","null","bathroom","L","non-repeat","null","317","stimuli/bathroom_57.jpg","","","","",""
"","","","","","image-keyboard-response","368","2.0.0","380972","psfbv10qd5k","panda","null","stimuli/bridge_20.jpg","null","bridge","G","non-repeat","null","318","stimuli/bridge_20.jpg","","","","",""
"","","","","","image-keyboard-response","369","2.0.0","381976","psfbv10qd5k","panda","null","stimuli/street_47.jpg","null","street","H","non-repeat","null","319","stimuli/street_47.jpg","","","","",""
"","","","","","image-keyboard-response","370","2.0.0","382980","psfbv10qd5k","panda","77","stimuli/stream_31.jpg"," ","stream","I","non-repeat","null","320","stimuli/stream_31.jpg","","","","",""
"","","","","","image-keyboard-response","371","2.0.0","383984","psfbv10qd5k","panda","null","stimuli/stream_31.jpg","null","stream","I","repeat"," ","320","","","","","",""
"","","","","","image-keyboard-response","372","2.0.0","384989","psfbv10qd5k","panda","null","stimuli/playground_7.jpg","null","playground","J","non-repeat","null","321","stimuli/playground_7.jpg","","","","",""
"","","","","","image-keyboard-response","373","2.0.0","385993","psfbv10qd5k","panda","null","stimuli/bar_41.jpg","null","bar","K","non-repeat","null","322","stimuli/bar_41.jpg","","","","",""
"","","","","","image-keyboard-response","374","2.0.0","386998","psfbv10qd5k","panda","null","stimuli/bathroom_57.jpg","null","bathroom","L","non-repeat","null","323","stimuli/bathroom_57.jpg","","","","",""
"","","","","","image-keyboard-response","375","2.0.0","388004","psfbv10qd5k","panda","null","stimuli/desert_54.jpg","null","desert","A","non-repeat","null","324","stimuli/desert_54.jpg","","","","",""
"","","","","","image-keyboard-response","376","2.0.0","389008","psfbv10qd5k","panda","null","stimuli/woods_2.jpg","null","woods","B","non-repeat","null","325","stimuli/woods_2.jpg","","","","",""
"","","","","","image-keyboard-response","377","2.0.0","390013","psfbv10qd5k","panda","null","stimuli/gym_9.jpg","null","gym","C","non-repeat","null","326","stimuli/gym_9.jpg","","","","",""
"","","","","","image-keyboard-response","378","2.0.0","391019","psfbv10qd5k","panda","377","stimuli/coast_35.jpg"," ","coast","D","non-repeat","null","327","stimuli/coast_35.jpg","","","","",""
"","","","","","image-keyboard-response","379","2.0.0","392024","psfbv10qd5k","panda","null","stimuli/field_55.jpg","null","field","E","non-repeat","null","328","stimuli/field_55.jpg","","","","",""
"","","","","","image-keyboard-response","380","2.0.0","393028","psfbv10qd5k","panda","null","stimuli/kitchen_51.jpg","null","kitchen","F","non-repeat","null","329","stimuli/kitchen_51.jpg","","","","",""
"","","","","","image-keyboard-response","381","2.0.0","394032","psfbv10qd5k","panda","null","stimuli/playground_7.jpg","null","playground","J","non-repeat","null","330","stimuli/playground_7.jpg","","","","",""
"","","","","","image-keyboard-response","382","2.0.0","395037","psfbv10qd5k","panda","519","stimuli/playground_7.jpg"," ","playground","J","repeat"," ","330","","","","","",""
"","","","","","image-keyboard-response","383","2.0.0","396042","psfbv10qd5k","panda","625","stimuli/bar_41.jpg"," ","bar","K","non-repeat","null","331","stimuli/bar_41.jpg","","","","",""
"","","","","","image-keyboard-response","384","2.0.0","397046","psfbv10qd5k","panda","null","stimuli/bathroom_57.jpg","null","bathroom","L","non-repeat","null","332","stimuli/bathroom_57.jpg","","","","",""
"","","","","","image-keyboard-response","385","2.0.0","398051","psfbv10qd5k","panda","null","stimuli/desert_54.jpg","null","desert","A","non-repeat","null","333","stimuli/desert_54.jpg","","","","",""
"","","","","","image-keyboard-response","386","2.0.0","399055","psfbv10qd5k","panda","null","stimuli/woods_2.jpg","null","woods","B","non-repeat","null","334","stimuli/woods_2.jpg","","","","",""
"","","","","","image-keyboard-response","387","2.0.0","400060","psfbv10qd5k","panda","null","stimuli/gym_9.jpg","null","gym","C","non-repeat","null","335","stimuli/gym_9.jpg","","","","",""
"","","","","","image-keyboard-response","388","2.0.0","401064","psfbv10qd5k","panda","null","stimuli/coast_35.jpg","null","coast","D","non-repeat","null","336","stimuli/coast_35.jpg","","","","",""
"","","","","","image-keyboard-response","389","2.0.0","402070","psfbv10qd5k","panda","66","stimuli/field_55.jpg"," ","field","E","non-repeat","null","337","stimuli/field_55.jpg","","","","",""
"","","","","","image-keyboard-response","390","2.0.0","403075","psfbv10qd5k","panda","null","stimuli/kitchen_51.jpg","null","kitchen","F","non-repeat","null","338","stimuli/kitchen_51.jpg","","","","",""
"","","","","","image-keyboard-response","391","2.0.0","404080","psfbv10qd5k","panda","517","stimuli/bridge_20.jpg"," ","bridge","G","non-repeat","null","339","stimuli/bridge_20.jpg","","","","",""
"","","","","","image-keyboard-response","392","2.0.0","405085","psfbv10qd5k","panda","null","stimuli/street_47.jpg","null","street","H","non-repeat","null","340","stimuli/street_47.jpg","","","","",""
"","","","","","image-keyboard-response","393","2.0.0","406090","psfbv10qd5k","panda","null","stimuli/stream_31.jpg","null","stream","I","non-repeat","null","341","stimuli/stream_31.jpg","","","","",""
"","","","","","image-keyboard-response","394","2.0.0","407095","psfbv10qd5k","panda","null","stimuli/desert_54.jpg","null","desert","A","non-repeat","null","342","stimuli/desert_54.jpg","","","","",""
"","","","","","image-keyboard-response","395","2.0.0","408101","psfbv10qd5k","panda","212","stimuli/woods_2.jpg"," ","woods","B","non-repeat","null","343","stimuli/woods_2.jpg","","","","",""
"","","","","","image-keyboard-response","396","2.0.0","409106","psfbv10qd5k","panda","null","stimuli/gym_9.jpg","null","gym","C","non-repeat","null","344","stimuli/gym_9.jpg","","","","",""
"","","","","","image-keyboard-response","397","2.0.0","410111","psfbv10qd5k","panda","187","stimuli/bridge_20.jpg"," ","bridge","G","non-repeat","null","345","stimuli/bridge_20.jpg","","","","",""
"","","","","","image-keyboard-response","398","2.0.0","411116","psfbv10qd5k","panda","null","stimuli/street_47.jpg","null","street","H","non-repeat","null","346","stimuli/street_47.jpg","","","","",""
"","","","","","image-keyboard-response","399","2.0.0","412121","psfbv10qd5k","panda","null","stimuli/stream_31.jpg","null","stream","I","non-repeat","null","347","stimuli/stream_31.jpg","","","","",""
"","","","","","image-keyboard-response","400","2.0.0","413126","psfbv10qd5k","panda","null","stimuli/coast_35.jpg","null","coast","D","non-repeat","null","348","stimuli/coast_35.jpg","","","","",""
"","","","","","image-keyboard-response","401","2.0.0","414131","psfbv10qd5k","panda","null","stimuli/field_55.jpg","null","field","E","non-repeat","null","349","stimuli/field_55.jpg","","","","",""
"","","","","","image-keyboard-response","402","2.0.0","415135","psfbv10qd5k","panda","236","stimuli/kitchen_51.jpg"," ","kitchen","F","non-repeat","null","350","stimuli/kitchen_51.jpg","","","","",""
"","","","","","image-keyboard-response","403","2.0.0","416140","psfbv10qd5k","panda","null","stimuli/desert_54.jpg","null","desert","A","non-repeat","null","351","stimuli/desert_54.jpg","","","","",""
"","","","","","image-keyboard-response","404","2.0.0","417146","psfbv10qd5k","panda","917","stimuli/woods_2.jpg"," ","woods","B","non-repeat","null","352","stimuli/woods_2.jpg","","","","",""
"","","","","","image-keyboard-response","405","2.0.0","418148","psfbv10qd5k","panda","null","stimuli/gym_9.jpg","null","gym","C","non-repeat","null","353","stimuli/gym_9.jpg","","","","",""
"","","","","","image-keyboard-response","406","2.0.0","419153","psfbv10qd5k","panda","null","stimuli/gym_9.jpg","null","gym","C","repeat"," ","353","","","","","",""
"","","","","","image-keyboard-response","407","2.0.0","420157","psfbv10qd5k","panda","354","stimuli/coast_35.jpg"," ","coast","D","non-repeat","null","354","stimuli/coast_35.jpg","","","","",""
"","","","","","image-keyboard-response","408","2.0.0","421161","psfbv10qd5k","panda","null","stimuli/field_55.jpg","null","field","E","non-repeat","null","355","stimuli/field_55.jpg","","","","",""
"","","","","","image-keyboard-response","409","2.0.0","422167","psfbv10qd5k","panda","null","stimuli/kitchen_51.jpg","null","kitchen","F","non-repeat","null","356","stimuli/kitchen_51.jpg","","","","",""
"","","","","","image-keyboard-response","410","2.0.0","423173","psfbv10qd5k","panda","null","stimuli/desert_54.jpg","null","desert","A","non-repeat","null","357","stimuli/desert_54.jpg","","","","",""
"","","","","","image-keyboard-response","411","2.0.0","424178","psfbv10qd5k","panda","null","stimuli/woods_2.jpg","null","woods","B","non-repeat","null","358","stimuli/woods_2.jpg","","","","",""
"","","","","","image-keyboard-response","412","2.0.0","425181","psfbv10qd5k","panda","null","stimuli/gym_9.jpg","null","gym","C","non-repeat","null","359","stimuli/gym_9.jpg","","","","",""
"","","","","","image-keyboard-response","413","2.0.0","426186","psfbv10qd5k","panda","null","stimuli/gym_9.jpg","null","gym","C","repeat"," ","359","","","","","",""
"","","","","","image-keyboard-response","414","2.0.0","427191","psfbv10qd5k","panda","null","stimuli/coast_35.jpg","null","coast","D","non-repeat","null","360","stimuli/coast_35.jpg","","","","",""
"","","","","","image-keyboard-response","415","2.0.0","428196","psfbv10qd5k","panda","41","stimuli/field_55.jpg"," ","field","E","non-repeat","null","361","stimuli/field_55.jpg","","","","",""
"","","","","","image-keyboard-response","416","2.0.0","429200","psfbv10qd5k","panda","935","stimuli/kitchen_51.jpg"," ","kitchen","F","non-repeat","null","362","stimuli/kitchen_51.jpg","","","","",""
"","","","","","image-keyboard-response","417","2.0.0","430205","psfbv10qd5k","panda","null","stimuli/bridge_20.jpg","null","bridge","G","non-repeat","null","363","stimuli/bridge_20.jpg","","","","",""
"","","","","","image-keyboard-response","418","2.0.0","431209","psfbv10qd5k","panda","976","stimuli/street_47.jpg"," ","street","H","non-repeat","null","364","stimuli/street_47.jpg","","","","",""
"","","","","","image-keyboard-response","419","2.0.0","432214","psfbv10qd5k","panda","null","stimuli/stream_31.jpg","null","stream","I","non-repeat","null","365","stimuli/stream_31.jpg","","","","",""
"","","","","","image-keyboard-response","420","2.0.0","433219","psfbv10qd5k","panda","975","stimuli/coast_35.jpg"," ","coast","D","non-repeat","null","366","stimuli/coast_35.jpg","","","","",""
"","","","","","image-keyboard-response","421","2.0.0","434224","psfbv10qd5k","panda","null","stimuli/coast_35.jpg","null","coast","D","repeat"," ","366","","","","","",""
"","","","","","image-keyboard-response","422","2.0.0","435229","psfbv10qd5k","panda","545","stimuli/field_55.jpg"," ","field","E","non-repeat","null","367","stimuli/field_55.jpg","","","","",""
"","","","","","image-keyboard-response","423","2.0.0","436234","psfbv10qd5k","panda","null","stimuli/kitchen_51.jpg","null","kitchen","F","non-repeat","null","368","stimuli/kitchen_51.jpg","","","","",""
"","","","","","image-keyboard-response","424","2.0.0","437240","psfbv10qd5k","panda","928","stimuli/desert_54.jpg"," ","desert","A","non-repeat","null","369","stimuli/desert_54.jpg","","","","",""
"","","","","","image-keyboard-response","425","2.0.0","438244","psfbv10qd5k","panda","null","stimuli/woods_2.jpg","null","woods","B","non-repeat","null","370","stimuli/woods_2.jpg","","","","",""
"","","","","","image-keyboard-response","426","2.0.0","439249","psfbv10qd5k","panda","null","stimuli/gym_9.jpg","null","gym","C","non-repeat","null","371","stimuli/gym_9.jpg","","","","",""
"","","","","","image-keyboard-response","427","2.0.0","440254","psfbv10qd5k","panda","null","stimuli/gym_9.jpg","null","gym","C","repeat"," ","371","","","","","",""
"","","","","","image-keyboard-response","428","2.0.0","441258","psfbv10qd5k","panda","null","stimuli/playground_7.jpg","null","playground","J","non-repeat","null","372","stimuli/playground_7.jpg","","","","",""
"","","","","","image-keyboard-response","429","2.0.0","442263","psfbv10qd5k","panda","74","stimuli/bar_41.jpg"," ","bar","K","non-repeat","null","373","stimuli/bar_41.jpg","","","","",""
"","","","","","image-keyboard-response","430","2.0.0","443268","psfbv10qd5k","panda","null","stimuli/bathroom_57.jpg","null","bathroom","L","non-repeat","null","374","stimuli/bathroom_57.jpg","","","","",""
"","","","","","image-keyboard-response","431","2.0.0","444273","psfbv10qd5k","panda","null","stimuli/desert_54.jpg","null","desert","A","non-repeat","null","375","stimuli/desert_54.jpg","","","","",""
"","","","","","image-keyboard-response","432","2.0.0","445283","psfbv10qd5k","panda","null","stimuli/woods_2.jpg","null","woods","B","non-repeat","null","376","stimuli/woods_2.jpg","","","","",""
"","","","","","image-keyboard-response","433","2.0.0","446289","psfbv10qd5k","panda","null","stimuli/gym_9.jpg","null","gym","C","non-repeat","null","377","stimuli/gym_9.jpg","","","","",""
"","","","","","image-keyboard-response","434","2.0.0","447294","psfbv10qd5k","panda","null","stimuli/bridge_20.jpg","null","bridge","G","non-repeat","null","378","stimuli/bridge_20.jpg","","","","",""
"","","","","","image-keyboard-response","435","2.0.0","448299","psfbv10qd5k","panda","458","stimuli/bridge_20.jpg"," ","bridge","G","repeat"," ","378","","","","","",""
"","","","","","image-keyboard-response","436","2.0.0","449304","psfbv10qd5k","panda","null","stimuli/street_47.jpg","null","street","H","non-repeat","null","379","stimuli/street_47.jpg","","","","",""
"","","","","","image-keyboard-response","437","2.0.0","450309","psfbv10qd5k","panda","null","stimuli/stream_31.jpg","null","stream","I","non-repeat","null","380","stimuli/stream_31.jpg","","","","",""
"","","","","","image-keyboard-response","438","2.0.0","451313","psfbv10qd5k","panda","null","stimuli/playground_7.jpg","null","playground","J","non-repeat","null","381","stimuli/playground_7.jpg","","","","",""
"","","","","","image-keyboard-response","439","2.0.0","452318","psfbv10qd5k","panda","null","stimuli/bar_41.jpg","null","bar","K","non-repeat","null","382","stimuli/bar_41.jpg","","","","",""
"","","","","","image-keyboard-response","440","2.0.0","453323","psfbv10qd5k","panda","null","stimuli/bathroom_57.jpg","null","bathroom","L","non-repeat","null","383","stimuli/bathroom_57.jpg","","","","",""
"","","","","","image-keyboard-response","441","2.0.0","454328","psfbv10qd5k","panda","null","stimuli/coast_35.jpg","null","coast","D","non-repeat","null","384","stimuli/coast_35.jpg","","","","",""
"","","","","","image-keyboard-response","442","2.0.0","455333","psfbv10qd5k","panda","null","stimuli/field_55.jpg","null","field","E","non-repeat","null","385","stimuli/field_55.jpg","","","","",""
"","","","","","image-keyboard-response","443","2.0.0","456338","psfbv10qd5k","panda","null","stimuli/kitchen_51.jpg","null","kitchen","F","non-repeat","null","386","stimuli/kitchen_51.jpg","","","","",""
"","","","","","image-keyboard-response","444","2.0.0","457343","psfbv10qd5k","panda","null","stimuli/playground_7.jpg","null","playground","J","non-repeat","null","387","stimuli/playground_7.jpg","","","","",""
"","","","","","image-keyboard-response","445","2.0.0","458348","psfbv10qd5k","panda","null","stimuli/bar_41.jpg","null","bar","K","non-repeat","null","388","stimuli/bar_41.jpg","","","","",""
"","","","","","image-keyboard-response","446","2.0.0","459353","psfbv10qd5k","panda","null","stimuli/bathroom_57.jpg","null","bathroom","L","non-repeat","null","389","stimuli/bathroom_57.jpg","","","","",""
"","","","","","image-keyboard-response","447","2.0.0","460358","psfbv10qd5k","panda","null","stimuli/desert_54.jpg","null","desert","A","non-repeat","null","390","stimuli/desert_54.jpg","","","","",""
"","","","","","image-keyboard-response","448","2.0.0","461363","psfbv10qd5k","panda","null","stimuli/woods_2.jpg","null","woods","B","non-repeat","null","391","stimuli/woods_2.jpg","","","","",""
"","","","","","image-keyboard-response","449","2.0.0","462368","psfbv10qd5k","panda","null","stimuli/gym_9.jpg","null","gym","C","non-repeat","null","392","stimuli/gym_9.jpg","","","","",""
"","","","","","image-keyboard-response","450","2.0.0","463373","psfbv10qd5k","panda","null","stimuli/bridge_20.jpg","null","bridge","G","non-repeat","null","393","stimuli/bridge_20.jpg","","","","",""
"","","","","","image-keyboard-response","451","2.0.0","464378","psfbv10qd5k","panda","null","stimuli/street_47.jpg","null","street","H","non-repeat","null","394","stimuli/street_47.jpg","","","","",""
"","","","","","image-keyboard-response","452","2.0.0","465382","psfbv10qd5k","panda","null","stimuli/stream_31.jpg","null","stream","I","non-repeat","null","395","stimuli/stream_31.jpg","","","","",""
"","","","","","image-keyboard-response","453","2.0.0","466388","psfbv10qd5k","panda","417","stimuli/stream_31.jpg"," ","stream","I","repeat"," ","395","","","","","",""
"","","","","","image-keyboard-response","454","2.0.0","467393","psfbv10qd5k","panda","null","stimuli/desert_54.jpg","null","desert","A","non-repeat","null","396","stimuli/desert_54.jpg","","","","",""
"","","","","","image-keyboard-response","455","2.0.0","468398","psfbv10qd5k","panda","null","stimuli/woods_2.jpg","null","woods","B","non-repeat","null","397","stimuli/woods_2.jpg","","","","",""
"","","","","","image-keyboard-response","456","2.0.0","469403","psfbv10qd5k","panda","null","stimuli/gym_9.jpg","null","gym","C","non-repeat","null","398","stimuli/gym_9.jpg","","","","",""
"","","","","","image-keyboard-response","457","2.0.0","470408","psfbv10qd5k","panda","693","stimuli/gym_9.jpg"," ","gym","C","repeat"," ","398","","","","","",""
"","","","","","image-keyboard-response","458","2.0.0","471412","psfbv10qd5k","panda","null","stimuli/playground_7.jpg","null","playground","J","non-repeat","null","399","stimuli/playground_7.jpg","","","","",""
"","","","","","image-keyboard-response","459","2.0.0","472416","psfbv10qd5k","panda","null","stimuli/bar_41.jpg","null","bar","K","non-repeat","null","400","stimuli/bar_41.jpg","","","","",""
"","","","","","image-keyboard-response","460","2.0.0","473423","psfbv10qd5k","panda","null","stimuli/bathroom_57.jpg","null","bathroom","L","non-repeat","null","401","stimuli/bathroom_57.jpg","","","","",""
"","","","","","image-keyboard-response","461","2.0.0","474428","psfbv10qd5k","panda","null","stimuli/coast_35.jpg","null","coast","D","non-repeat","null","402","stimuli/coast_35.jpg","","","","",""
"","","","","","image-keyboard-response","462","2.0.0","475432","psfbv10qd5k","panda","553","stimuli/field_55.jpg"," ","field","E","non-repeat","null","403","stimuli/field_55.jpg","","","","",""
"","","","","","image-keyboard-response","463","2.0.0","476435","psfbv10qd5k","panda","null","stimuli/kitchen_51.jpg","null","kitchen","F","non-repeat","null","404","stimuli/kitchen_51.jpg","","","","",""
"","","","","","image-keyboard-response","464","2.0.0","477443","psfbv10qd5k","panda","null","stimuli/desert_54.jpg","null","desert","A","non-repeat","null","405","stimuli/desert_54.jpg","","","","",""
"","","","","","image-keyboard-response","465","2.0.0","478447","psfbv10qd5k","panda","null","stimuli/woods_2.jpg","null","woods","B","non-repeat","null","406","stimuli/woods_2.jpg","","","","",""
"","","","","","image-keyboard-response","466","2.0.0","479453","psfbv10qd5k","panda","null","stimuli/gym_9.jpg","null","gym","C","non-repeat","null","407","stimuli/gym_9.jpg","","","","",""
"","","","","","image-keyboard-response","467","2.0.0","480458","psfbv10qd5k","panda","748","stimuli/bridge_20.jpg"," ","bridge","G","non-repeat","null","408","stimuli/bridge_20.jpg","","","","",""
"","","","","","image-keyboard-response","468","2.0.0","481463","psfbv10qd5k","panda","null","stimuli/street_47.jpg","null","street","H","non-repeat","null","409","stimuli/street_47.jpg","","","","",""
"","","","","","image-keyboard-response","469","2.0.0","482469","psfbv10qd5k","panda","null","stimuli/stream_31.jpg","null","stream","I","non-repeat","null","410","stimuli/stream_31.jpg","","","","",""
"","","","","","html-keyboard-response","470","2.0.0","483981","psfbv10qd5k","panda","1510","
    <div style='width:900px;margin: auto;'><p>In the next part of the experiment, we want to see how well you learned the structure in the stream of images.</p>
    <p>On each trial, you will see two sequences of three images, sequence 1 and 2. We will ask you to indicate which sequence was more familiar based on the first part of the experiment.</p>
    <p>Press 1 if the first sequence (sequence 1) felt more familiar. Press 2 if the second sequence (sequence 2) felt more familiar.</p>
    <p>Press any key to begin.</p></div>"," ","","","","","","","","","","",""
"","","","","","html-keyboard-response","471","2.0.0","484983","psfbv10qd5k","panda","null","<p>Sequence 1</p>","null","","","","","","","","","","",""
"","","","","","image-keyboard-response","472","2.0.0","485989","psfbv10qd5k","panda","null","stimuli/bridge_20.jpg","null","","","","","","","","","","",""
"","","","","","image-keyboard-response","473","2.0.0","486994","psfbv10qd5k","panda","null","stimuli/street_47.jpg","null","","","","","","","","","","",""
"","","","","","image-keyboard-response","474","2.0.0","487998","psfbv10qd5k","panda","null","stimuli/stream_31.jpg","null","","","","","","","","","","",""
"","","","","","html-keyboard-response","475","2.0.0","489001","psfbv10qd5k","panda","null","<p></p>","null","","","","","","","","","","",""
"","","","","","html-keyboard-response","476","2.0.0","490005","psfbv10qd5k","panda","null","<p>Sequence 2</p>","null","","","","","","","","","","",""
"","","","","","image-keyboard-response","477","2.0.0","491011","psfbv10qd5k","panda","null","stimuli/playground_7.jpg","null","","","","","","","","","","",""
"","","","","","image-keyboard-response","478","2.0.0","492016","psfbv10qd5k","panda","null","stimuli/woods_2.jpg","null","","","","","","","","","","",""
"","","","","","image-keyboard-response","479","2.0.0","493021","psfbv10qd5k","panda","null","stimuli/kitchen_51.jpg","null","","","","","","","","","","",""
"","","","","","html-keyboard-response","480","2.0.0","501897","psfbv10qd5k","panda","8873","<p>Press '1' if the first sequence was familiar, '2' if the second was.</p>","2","","","1","","","","[""G"",""H"",""I""]","[""J"",""B"",""F""]","false","[""<p>Sequence 1</p>"",""stimuli/bridge_20.jpg"",""stimuli/street_47.jpg"",""stimuli/stream_31.jpg""]","[""<p>Sequence 2</p>"",""stimuli/playground_7.jpg"",""stimuli/woods_2.jpg"",""stimuli/kitchen_51.jpg""]"
"","","","","","html-keyboard-response","481","2.0.0","502900","psfbv10qd5k","panda","null","<p>Sequence 1</p>","null","","","","","","","","","","",""
"","","","","","image-keyboard-response","482","2.0.0","503903","psfbv10qd5k","panda","null","stimuli/bridge_20.jpg","null","","","","","","","","","","",""
"","","","","","image-keyboard-response","483","2.0.0","504908","psfbv10qd5k","panda","null","stimuli/street_47.jpg","null","","","","","","","","","","",""
"","","","","","image-keyboard-response","484","2.0.0","505913","psfbv10qd5k","panda","null","stimuli/stream_31.jpg","null","","","","","","","","","","",""
"","","","","","html-keyboard-response","485","2.0.0","506916","psfbv10qd5k","panda","null","<p></p>","null","","","","","","","","","","",""
"","","","","","html-keyboard-response","486","2.0.0","507920","psfbv10qd5k","panda","null","<p>Sequence 2</p>","null","","","","","","","","","","",""
"","","","","","image-keyboard-response","487","2.0.0","508923","psfbv10qd5k","panda","null","stimuli/bridge_20.jpg","null","","","","","","","","","","",""
"","","","","","image-keyboard-response","488","2.0.0","509927","psfbv10qd5k","panda","null","stimuli/bar_41.jpg","null","","","","","","","","","","",""
"","","","","","image-keyboard-response","489","2.0.0","510932","psfbv10qd5k","panda","null","stimuli/gym_9.jpg","null","","","","","","","","","","",""
"","","","","","html-keyboard-response","490","2.0.0","513062","psfbv10qd5k","panda","2127","<p>Press '1' if the first sequence was familiar, '2' if the second was.</p>","2","","","1","","","","[""G"",""H"",""I""]","[""G"",""K"",""C""]","false","[""<p>Sequence 1</p>"",""stimuli/bridge_20.jpg"",""stimuli/street_47.jpg"",""stimuli/stream_31.jpg""]","[""<p>Sequence 2</p>"",""stimuli/bridge_20.jpg"",""stimuli/bar_41.jpg"",""stimuli/gym_9.jpg""]"
"","","","","","html-keyboard-response","491","2.0.0","514064","psfbv10qd5k","panda","null","<p>Sequence 1</p>","null","","","","","","","","","","",""
"","","","","","image-keyboard-response","492","2.0.0","515070","psfbv10qd5k","panda","null","stimuli/playground_7.jpg","null","","","","","","","","","","",""
"","","","","","image-keyboard-response","493","2.0.0","516076","psfbv10qd5k","panda","null","stimuli/bar_41.jpg","null","","","","","","","","","","",""
"","","","","","image-keyboard-response","494","2.0.0","517080","psfbv10qd5k","panda","null","stimuli/bathroom_57.jpg","null","","","","","","","","","","",""
"","","","","","html-keyboard-response","495","2.0.0","518084","psfbv10qd5k","panda","null","<p></p>","null","","","","","","","","","","",""
"","","","","","html-keyboard-response","496","2.0.0","519088","psfbv10qd5k","panda","null","<p>Sequence 2</p>","null","","","","","","","","","","",""
"","","","","","image-keyboard-response","497","2.0.0","520093","psfbv10qd5k","panda","null","stimuli/coast_35.jpg","null","","","","","","","","","","",""
"","","","","","image-keyboard-response","498","2.0.0","521096","psfbv10qd5k","panda","null","stimuli/street_47.jpg","null","","","","","","","","","","",""
"","","","","","image-keyboard-response","499","2.0.0","522100","psfbv10qd5k","panda","null","stimuli/bathroom_57.jpg","null","","","","","","","","","","",""
"","","","","","html-keyboard-response","500","2.0.0","523696","psfbv10qd5k","panda","1592","<p>Press '1' if the first sequence was familiar, '2' if the second was.</p>","2","","","1","","","","[""J"",""K"",""L""]","[""D"",""H"",""L""]","false","[""<p>Sequence 1</p>"",""stimuli/playground_7.jpg"",""stimuli/bar_41.jpg"",""stimuli/bathroom_57.jpg""]","[""<p>Sequence 2</p>"",""stimuli/coast_35.jpg"",""stimuli/street_47.jpg"",""stimuli/bathroom_57.jpg""]"
"","","","","","html-keyboard-response","501","2.0.0","524699","psfbv10qd5k","panda","null","<p>Sequence 1</p>","null","","","","","","","","","","",""
"","","","","","image-keyboard-response","502","2.0.0","525703","psfbv10qd5k","panda","null","stimuli/bridge_20.jpg","null","","","","","","","","","","",""
"","","","","","image-keyboard-response","503","2.0.0","526708","psfbv10qd5k","panda","null","stimuli/street_47.jpg","null","","","","","","","","","","",""
"","","","","","image-keyboard-response","504","2.0.0","527714","psfbv10qd5k","panda","null","stimuli/stream_31.jpg","null","","","","","","","","","","",""
"","","","","","html-keyboard-response","505","2.0.0","528719","psfbv10qd5k","panda","null","<p></p>","null","","","","","","","","","","",""
