"success","rt","trial_type","trial_index","plugin_version","time_elapsed","random_id","participant","stimulus","response","timeout","failed_images","failed_audio","failed_video","category","letter","correct_response","correct_response_key","trial_counter","current_image","test_triplet","foil_triplet","correct","firstSequencePaths","secondSequencePaths"
"true","1518","fullscreen","0","null","2535","psufftogyyo","heron","","","","","","","","","","","","","","","","",""
"","1083","html-keyboard-response","1","2.0.0","3619","psufftogyyo","heron","Welcome to the experiment. Press any key to begin."," ","","","","","","","","","","","","","","",""
"","2617","survey-text","2","2.0.0","6238","psufftogyyo","heron","","{""participant_id"":""heron""}","","","","","","","","","","","","","","",""
"","822","html-keyboard-response","3","2.0.0","7061","psufftogyyo","heron","
  <p>For this trial, you will see a series of images.</p>
  <p>Press the spacebar whenever you see a repeat of an image back to back.</p>
  <p>Press any key to begin.</p>"," ","","","","","","","","","","","","","","",""
"true","","preload","4","2.0.0","7324","psufftogyyo","heron","","","false","[]","[]","[]","","","","","","","","","","",""
"","null","image-keyboard-response","5","2.0.0","8340","psufftogyyo","heron","stimuli/woods_20.jpg","null","","","","","woods","A","non-repeat","null","0","stimuli/woods_20.jpg","","","","",""
"","null","image-keyboard-response","6","2.0.0","9351","psufftogyyo","heron","stimuli/street_13.jpg","null","","","","","street","B","non-repeat","null","1","stimuli/street_13.jpg","","","","",""
"","null","image-keyboard-response","7","2.0.0","10366","psufftogyyo","heron","stimuli/desert_30.jpg","null","","","","","desert","C","non-repeat","null","2","stimuli/desert_30.jpg","","","","",""
"","null","image-keyboard-response","8","2.0.0","11380","psufftogyyo","heron","stimuli/playground_54.jpg","null","","","","","playground","J","non-repeat","null","3","stimuli/playground_54.jpg","","","","",""
"","null","image-keyboard-response","9","2.0.0","12395","psufftogyyo","heron","stimuli/gym_38.jpg","null","","","","","gym","K","non-repeat","null","4","stimuli/gym_38.jpg","","","","",""
"","null","image-keyboard-response","10","2.0.0","13408","psufftogyyo","heron","stimuli/field_25.jpg","null","","","","","field","L","non-repeat","null","5","stimuli/field_25.jpg","","","","",""
"","390","image-keyboard-response","11","2.0.0","14422","psufftogyyo","heron","stimuli/woods_20.jpg"," ","","","","","woods","A","non-repeat","null","6","stimuli/woods_20.jpg","","","","",""
"","null","image-keyboard-response","12","2.0.0","15436","psufftogyyo","heron","stimuli/street_13.jpg","null","","","","","street","B","non-repeat","null","7","stimuli/street_13.jpg","","","","",""
"","null","image-keyboard-response","13","2.0.0","16450","psufftogyyo","heron","stimuli/desert_30.jpg","null","","","","","desert","C","non-repeat","null","8","stimuli/desert_30.jpg","","","","",""
"","null","image-keyboard-response","14","2.0.0","17465","psufftogyyo","heron","stimuli/playground_54.jpg","null","","","","","playground","J","non-repeat","null","9","stimuli/playground_54.jpg","","","","",""
"","null","image-keyboard-response","15","2.0.0","18478","psufftogyyo","heron","stimuli/gym_38.jpg","null","","","","","gym","K","non-repeat","null","10","stimuli/gym_38.jpg","","","","",""
"","null","image-keyboard-response","16","2.0.0","19480","psufftogyyo","heron","stimuli/field_25.jpg","null","","","","","field","L","non-repeat","null","11","stimuli/field_25.jpg","","","","",""
"","230","image-keyboard-response","17","2.0.0","20492","psufftogyyo","heron","stimuli/woods_20.jpg"," ","","","","","woods","A","non-repeat","null","12","stimuli/woods_20.jpg","","","","",""
"","null","image-keyboard-response","18","2.0.0","21504","psufftogyyo","heron","stimuli/street_13.jpg","null","","","","","street","B","non-repeat","null","13","stimuli/street_13.jpg","","","","",""
"","null","image-keyboard-response","19","2.0.0","22520","psufftogyyo","heron","stimuli/desert_30.jpg","null","","","","","desert","C","non-repeat","null","14","stimuli/desert_30.jpg","","","","",""
"","282","image-keyboard-response","20","2.0.0","23532","psufftogyyo","heron","stimuli/desert_30.jpg"," ","","","","","desert","C","repeat"," ","14","","","","","",""
"","null","image-keyboard-response","21","2.0.0","24547","psufftogyyo","heron","stimuli/coast_26.jpg","null","","","","","coast","G","non-repeat","null","15","stimuli/coast_26.jpg","","","","",""
"","null","image-keyboard-response","22","2.0.0","25559","psufftogyyo","heron","stimuli/bar_63.jpg","null","","","","","bar","H","non-repeat","null","16","stimuli/bar_63.jpg","","","","",""
"","null","image-keyboard-response","23","2.0.0","26575","psufftogyyo","heron","stimuli/stream_68.jpg","null","","","","","stream","I","non-repeat","null","17","stimuli/stream_68.jpg","","","","",""
"","506","image-keyboard-response","24","2.0.0","27589","psufftogyyo","heron","stimuli/woods_20.jpg"," ","","","","","woods","A","non-repeat","null","18","stimuli/woods_20.jpg","","","","",""
"","null","image-keyboard-response","25","2.0.0","28604","psufftogyyo","heron","stimuli/street_13.jpg","null","","","","","street","B","non-repeat","null","19","stimuli/street_13.jpg","","","","",""
"","null","image-keyboard-response","26","2.0.0","29615","psufftogyyo","heron","stimuli/desert_30.jpg","null","","","","","desert","C","non-repeat","null","20","stimuli/desert_30.jpg","","","","",""
"","null","image-keyboard-response","27","2.0.0","30629","psufftogyyo","heron","stimuli/bathroom_46.jpg","null","","","","","bathroom","D","non-repeat","null","21","stimuli/bathroom_46.jpg","","","","",""
"","null","image-keyboard-response","28","2.0.0","31642","psufftogyyo","heron","stimuli/kitchen_23.jpg","null","","","","","kitchen","E","non-repeat","null","22","stimuli/kitchen_23.jpg","","","","",""
"","null","image-keyboard-response","29","2.0.0","32654","psufftogyyo","heron","stimuli/bridge_37.jpg","null","","","","","bridge","F","non-repeat","null","23","stimuli/bridge_37.jpg","","","","",""
"","null","image-keyboard-response","30","2.0.0","33668","psufftogyyo","heron","stimuli/playground_54.jpg","null","","","","","playground","J","non-repeat","null","24","stimuli/playground_54.jpg","","","","",""
"","239","image-keyboard-response","31","2.0.0","34683","psufftogyyo","heron","stimuli/playground_54.jpg"," ","","","","","playground","J","repeat"," ","24","","","","","",""
"","null","image-keyboard-response","32","2.0.0","35689","psufftogyyo","heron","stimuli/gym_38.jpg","null","","","","","gym","K","non-repeat","null","25","stimuli/gym_38.jpg","","","","",""
"","null","image-keyboard-response","33","2.0.0","36705","psufftogyyo","heron","stimuli/field_25.jpg","null","","","","","field","L","non-repeat","null","26","stimuli/field_25.jpg","","","","",""
"","354","image-keyboard-response","34","2.0.0","37714","psufftogyyo","heron","stimuli/bathroom_46.jpg"," ","","","","","bathroom","D","non-repeat","null","27","stimuli/bathroom_46.jpg","","","","",""
"","null","image-keyboard-response","35","2.0.0","38730","psufftogyyo","heron","stimuli/kitchen_23.jpg","null","","","","","kitchen","E","non-repeat","null","28","stimuli/kitchen_23.jpg","","","","",""
"","null","image-keyboard-response","36","2.0.0","39739","psufftogyyo","heron","stimuli/bridge_37.jpg","null","","","","","bridge","F","non-repeat","null","29","stimuli/bridge_37.jpg","","","","",""
"","365","image-keyboard-response","37","2.0.0","40745","psufftogyyo","heron","stimuli/coast_26.jpg"," ","","","","","coast","G","non-repeat","null","30","stimuli/coast_26.jpg","","","","",""
"","null","image-keyboard-response","38","2.0.0","41754","psufftogyyo","heron","stimuli/bar_63.jpg","null","","","","","bar","H","non-repeat","null","31","stimuli/bar_63.jpg","","","","",""
"","null","image-keyboard-response","39","2.0.0","42763","psufftogyyo","heron","stimuli/stream_68.jpg","null","","","","","stream","I","non-repeat","null","32","stimuli/stream_68.jpg","","","","",""
"","237","image-keyboard-response","40","2.0.0","43773","psufftogyyo","heron","stimuli/playground_54.jpg"," ","","","","","playground","J","non-repeat","null","33","stimuli/playground_54.jpg","","","","",""
"","null","image-keyboard-response","41","2.0.0","44789","psufftogyyo","heron","stimuli/gym_38.jpg","null","","","","","gym","K","non-repeat","null","34","stimuli/gym_38.jpg","","","","",""
"","null","image-keyboard-response","42","2.0.0","45804","psufftogyyo","heron","stimuli/field_25.jpg","null","","","","","field","L","non-repeat","null","35","stimuli/field_25.jpg","","","","",""
"","null","image-keyboard-response","43","2.0.0","46818","psufftogyyo","heron","stimuli/bathroom_46.jpg","null","","","","","bathroom","D","non-repeat","null","36","stimuli/bathroom_46.jpg","","","","",""
"","null","image-keyboard-response","44","2.0.0","47828","psufftogyyo","heron","stimuli/kitchen_23.jpg","null","","","","","kitchen","E","non-repeat","null","37","stimuli/kitchen_23.jpg","","","","",""
"","null","image-keyboard-response","45","2.0.0","48839","psufftogyyo","heron","stimuli/bridge_37.jpg","null","","","","","bridge","F","non-repeat","null","38","stimuli/bridge_37.jpg","","","","",""
"","270","image-keyboard-response","46","2.0.0","49856","psufftogyyo","heron","stimuli/coast_26.jpg"," ","","","","","coast","G","non-repeat","null","39","stimuli/coast_26.jpg","","","","",""
"","null","image-keyboard-response","47","2.0.0","50870","psufftogyyo","heron","stimuli/bar_63.jpg","null","","","","","bar","H","non-repeat","null","40","stimuli/bar_63.jpg","","","","",""
"","null","image-keyboard-response","48","2.0.0","51872","psufftogyyo","heron","stimuli/stream_68.jpg","null","","","","","stream","I","non-repeat","null","41","stimuli/stream_68.jpg","","","","",""
"","null","image-keyboard-response","49","2.0.0","52884","psufftogyyo","heron","stimuli/woods_20.jpg","null","","","","","woods","A","non-repeat","null","42","stimuli/woods_20.jpg","","","","",""
"","375","image-keyboard-response","50","2.0.0","53900","psufftogyyo","heron","stimuli/street_13.jpg"," ","","","","","street","B","non-repeat","null","43","stimuli/street_13.jpg","","","","",""
"","null","image-keyboard-response","51","2.0.0","54913","psufftogyyo","heron","stimuli/desert_30.jpg","null","","","","","desert","C","non-repeat","null","44","stimuli/desert_30.jpg","","","","",""
"","null","image-keyboard-response","52","2.0.0","55916","psufftogyyo","heron","stimuli/desert_30.jpg","null","","","","","desert","C","repeat"," ","44","","","","","",""
"","58","image-keyboard-response","53","2.0.0","56928","psufftogyyo","heron","stimuli/playground_54.jpg"," ","","","","","playground","J","non-repeat","null","45","stimuli/playground_54.jpg","","","","",""
"","315","image-keyboard-response","54","2.0.0","57941","psufftogyyo","heron","stimuli/playground_54.jpg"," ","","","","","playground","J","repeat"," ","45","","","","","",""
"","null","image-keyboard-response","55","2.0.0","58951","psufftogyyo","heron","stimuli/gym_38.jpg","null","","","","","gym","K","non-repeat","null","46","stimuli/gym_38.jpg","","","","",""
"","null","image-keyboard-response","56","2.0.0","59963","psufftogyyo","heron","stimuli/field_25.jpg","null","","","","","field","L","non-repeat","null","47","stimuli/field_25.jpg","","","","",""
"","null","image-keyboard-response","57","2.0.0","60977","psufftogyyo","heron","stimuli/coast_26.jpg","null","","","","","coast","G","non-repeat","null","48","stimuli/coast_26.jpg","","","","",""
"","null","image-keyboard-response","58","2.0.0","61991","psufftogyyo","heron","stimuli/bar_63.jpg","null","","","","","bar","H","non-repeat","null","49","stimuli/bar_63.jpg","","","","",""
"","null","image-keyboard-response","59","2.0.0","62994","psufftogyyo","heron","stimuli/stream_68.jpg","null","","","","","stream","I","non-repeat","null","50","stimuli/stream_68.jpg","","","","",""
"","null","image-keyboard-response","60","2.0.0","63995","psufftogyyo","heron","stimuli/playground_54.jpg","null","","","","","playground","J","non-repeat","null","51","stimuli/playground_54.jpg","","","","",""
"","null","image-keyboard-response","61","2.0.0","65011","psufftogyyo","heron","stimuli/gym_38.jpg","null","","","","","gym","K","non-repeat","null","52","stimuli/gym_38.jpg","","","","",""
"","null","image-keyboard-response","62","2.0.0","66021","psufftogyyo","heron","stimuli/field_25.jpg","null","","","","","field","L","non-repeat","null","53","stimuli/field_25.jpg","","","","",""
"","null","image-keyboard-response","63","2.0.0","67037","psufftogyyo","heron","stimuli/coast_26.jpg","null","","","","","coast","G","non-repeat","null","54","stimuli/coast_26.jpg","","","","",""
"","698","image-keyboard-response","64","2.0.0","68053","psufftogyyo","heron","stimuli/coast_26.jpg"," ","","","","","coast","G","repeat"," ","54","","","","","",""
"","null","image-keyboard-response","65","2.0.0","69064","psufftogyyo","heron","stimuli/bar_63.jpg","null","","","","","bar","H","non-repeat","null","55","stimuli/bar_63.jpg","","","","",""
"","null","image-keyboard-response","66","2.0.0","70081","psufftogyyo","heron","stimuli/stream_68.jpg","null","","","","","stream","I","non-repeat","null","56","stimuli/stream_68.jpg","","","","",""
"","583","image-keyboard-response","67","2.0.0","71093","psufftogyyo","heron","stimuli/stream_68.jpg"," ","","","","","stream","I","repeat"," ","56","","","","","",""
"","null","image-keyboard-response","68","2.0.0","72106","psufftogyyo","heron","stimuli/woods_20.jpg","null","","","","","woods","A","non-repeat","null","57","stimuli/woods_20.jpg","","","","",""
"","286","image-keyboard-response","69","2.0.0","73117","psufftogyyo","heron","stimuli/woods_20.jpg"," ","","","","","woods","A","repeat"," ","57","","","","","",""
"","null","image-keyboard-response","70","2.0.0","74130","psufftogyyo","heron","stimuli/street_13.jpg","null","","","","","street","B","non-repeat","null","58","stimuli/street_13.jpg","","","","",""
"","null","image-keyboard-response","71","2.0.0","75134","psufftogyyo","heron","stimuli/desert_30.jpg","null","","","","","desert","C","non-repeat","null","59","stimuli/desert_30.jpg","","","","",""
"","null","image-keyboard-response","72","2.0.0","76147","psufftogyyo","heron","stimuli/playground_54.jpg","null","","","","","playground","J","non-repeat","null","60","stimuli/playground_54.jpg","","","","",""
"","null","image-keyboard-response","73","2.0.0","77149","psufftogyyo","heron","stimuli/gym_38.jpg","null","","","","","gym","K","non-repeat","null","61","stimuli/gym_38.jpg","","","","",""
"","null","image-keyboard-response","74","2.0.0","78160","psufftogyyo","heron","stimuli/field_25.jpg","null","","","","","field","L","non-repeat","null","62","stimuli/field_25.jpg","","","","",""
"","null","image-keyboard-response","75","2.0.0","79173","psufftogyyo","heron","stimuli/woods_20.jpg","null","","","","","woods","A","non-repeat","null","63","stimuli/woods_20.jpg","","","","",""
"","null","image-keyboard-response","76","2.0.0","80183","psufftogyyo","heron","stimuli/street_13.jpg","null","","","","","street","B","non-repeat","null","64","stimuli/street_13.jpg","","","","",""
"","null","image-keyboard-response","77","2.0.0","81198","psufftogyyo","heron","stimuli/desert_30.jpg","null","","","","","desert","C","non-repeat","null","65","stimuli/desert_30.jpg","","","","",""
"","null","image-keyboard-response","78","2.0.0","82211","psufftogyyo","heron","stimuli/bathroom_46.jpg","null","","","","","bathroom","D","non-repeat","null","66","stimuli/bathroom_46.jpg","","","","",""
"","462","image-keyboard-response","79","2.0.0","83224","psufftogyyo","heron","stimuli/bathroom_46.jpg"," ","","","","","bathroom","D","repeat"," ","66","","","","","",""
"","null","image-keyboard-response","80","2.0.0","84239","psufftogyyo","heron","stimuli/kitchen_23.jpg","null","","","","","kitchen","E","non-repeat","null","67","stimuli/kitchen_23.jpg","","","","",""
"","null","image-keyboard-response","81","2.0.0","85243","psufftogyyo","heron","stimuli/bridge_37.jpg","null","","","","","bridge","F","non-repeat","null","68","stimuli/bridge_37.jpg","","","","",""
"","null","image-keyboard-response","82","2.0.0","86254","psufftogyyo","heron","stimuli/woods_20.jpg","null","","","","","woods","A","non-repeat","null","69","stimuli/woods_20.jpg","","","","",""
"","null","image-keyboard-response","83","2.0.0","87269","psufftogyyo","heron","stimuli/street_13.jpg","null","","","","","street","B","non-repeat","null","70","stimuli/street_13.jpg","","","","",""
"","null","image-keyboard-response","84","2.0.0","88284","psufftogyyo","heron","stimuli/desert_30.jpg","null","","","","","desert","C","non-repeat","null","71","stimuli/desert_30.jpg","","","","",""
"","null","image-keyboard-response","85","2.0.0","89297","psufftogyyo","heron","stimuli/bathroom_46.jpg","null","","","","","bathroom","D","non-repeat","null","72","stimuli/bathroom_46.jpg","","","","",""
"","234","image-keyboard-response","86","2.0.0","90304","psufftogyyo","heron","stimuli/bathroom_46.jpg"," ","","","","","bathroom","D","repeat"," ","72","","","","","",""
"","null","image-keyboard-response","87","2.0.0","91319","psufftogyyo","heron","stimuli/kitchen_23.jpg","null","","","","","kitchen","E","non-repeat","null","73","stimuli/kitchen_23.jpg","","","","",""
"","null","image-keyboard-response","88","2.0.0","92330","psufftogyyo","heron","stimuli/bridge_37.jpg","null","","","","","bridge","F","non-repeat","null","74","stimuli/bridge_37.jpg","","","","",""
"","null","image-keyboard-response","89","2.0.0","93345","psufftogyyo","heron","stimuli/playground_54.jpg","null","","","","","playground","J","non-repeat","null","75","stimuli/playground_54.jpg","","","","",""
"","null","image-keyboard-response","90","2.0.0","94358","psufftogyyo","heron","stimuli/gym_38.jpg","null","","","","","gym","K","non-repeat","null","76","stimuli/gym_38.jpg","","","","",""
"","null","image-keyboard-response","91","2.0.0","95364","psufftogyyo","heron","stimuli/field_25.jpg","null","","","","","field","L","non-repeat","null","77","stimuli/field_25.jpg","","","","",""
"","null","image-keyboard-response","92","2.0.0","96367","psufftogyyo","heron","stimuli/coast_26.jpg","null","","","","","coast","G","non-repeat","null","78","stimuli/coast_26.jpg","","","","",""
"","441","image-keyboard-response","93","2.0.0","97369","psufftogyyo","heron","stimuli/coast_26.jpg"," ","","","","","coast","G","repeat"," ","78","","","","","",""
"","null","image-keyboard-response","94","2.0.0","98382","psufftogyyo","heron","stimuli/bar_63.jpg","null","","","","","bar","H","non-repeat","null","79","stimuli/bar_63.jpg","","","","",""
"","null","image-keyboard-response","95","2.0.0","99399","psufftogyyo","heron","stimuli/stream_68.jpg","null","","","","","stream","I","non-repeat","null","80","stimuli/stream_68.jpg","","","","",""
"","null","image-keyboard-response","96","2.0.0","100414","psufftogyyo","heron","stimuli/woods_20.jpg","null","","","","","woods","A","non-repeat","null","81","stimuli/woods_20.jpg","","","","",""
"","null","image-keyboard-response","97","2.0.0","101425","psufftogyyo","heron","stimuli/street_13.jpg","null","","","","","street","B","non-repeat","null","82","stimuli/street_13.jpg","","","","",""
"","null","image-keyboard-response","98","2.0.0","102432","psufftogyyo","heron","stimuli/desert_30.jpg","null","","","","","desert","C","non-repeat","null","83","stimuli/desert_30.jpg","","","","",""
"","null","image-keyboard-response","99","2.0.0","103447","psufftogyyo","heron","stimuli/bathroom_46.jpg","null","","","","","bathroom","D","non-repeat","null","84","stimuli/bathroom_46.jpg","","","","",""
"","null","image-keyboard-response","100","2.0.0","104463","psufftogyyo","heron","stimuli/kitchen_23.jpg","null","","","","","kitchen","E","non-repeat","null","85","stimuli/kitchen_23.jpg","","","","",""
"","null","image-keyboard-response","101","2.0.0","105478","psufftogyyo","heron","stimuli/bridge_37.jpg","null","","","","","bridge","F","non-repeat","null","86","stimuli/bridge_37.jpg","","","","",""
"","497","image-keyboard-response","102","2.0.0","106485","psufftogyyo","heron","stimuli/woods_20.jpg"," ","","","","","woods","A","non-repeat","null","87","stimuli/woods_20.jpg","","","","",""
"","null","image-keyboard-response","103","2.0.0","107498","psufftogyyo","heron","stimuli/street_13.jpg","null","","","","","street","B","non-repeat","null","88","stimuli/street_13.jpg","","","","",""
"","null","image-keyboard-response","104","2.0.0","108500","psufftogyyo","heron","stimuli/desert_30.jpg","null","","","","","desert","C","non-repeat","null","89","stimuli/desert_30.jpg","","","","",""
"","null","image-keyboard-response","105","2.0.0","109512","psufftogyyo","heron","stimuli/bathroom_46.jpg","null","","","","","bathroom","D","non-repeat","null","90","stimuli/bathroom_46.jpg","","","","",""
"","null","image-keyboard-response","106","2.0.0","110525","psufftogyyo","heron","stimuli/kitchen_23.jpg","null","","","","","kitchen","E","non-repeat","null","91","stimuli/kitchen_23.jpg","","","","",""
"","null","image-keyboard-response","107","2.0.0","111529","psufftogyyo","heron","stimuli/bridge_37.jpg","null","","","","","bridge","F","non-repeat","null","92","stimuli/bridge_37.jpg","","","","",""
"","null","image-keyboard-response","108","2.0.0","112543","psufftogyyo","heron","stimuli/woods_20.jpg","null","","","","","woods","A","non-repeat","null","93","stimuli/woods_20.jpg","","","","",""
"","null","image-keyboard-response","109","2.0.0","113557","psufftogyyo","heron","stimuli/street_13.jpg","null","","","","","street","B","non-repeat","null","94","stimuli/street_13.jpg","","","","",""
"","null","image-keyboard-response","110","2.0.0","114570","psufftogyyo","heron","stimuli/desert_30.jpg","null","","","","","desert","C","non-repeat","null","95","stimuli/desert_30.jpg","","","","",""
"","384","image-keyboard-response","111","2.0.0","115581","psufftogyyo","heron","stimuli/desert_30.jpg"," ","","","","","desert","C","repeat"," ","95","","","","","",""
"","null","image-keyboard-response","112","2.0.0","116596","psufftogyyo","heron","stimuli/playground_54.jpg","null","","","","","playground","J","non-repeat","null","96","stimuli/playground_54.jpg","","","","",""
"","null","image-keyboard-response","113","2.0.0","117602","psufftogyyo","heron","stimuli/gym_38.jpg","null","","","","","gym","K","non-repeat","null","97","stimuli/gym_38.jpg","","","","",""
"","null","image-keyboard-response","114","2.0.0","118617","psufftogyyo","heron","stimuli/field_25.jpg","null","","","","","field","L","non-repeat","null","98","stimuli/field_25.jpg","","","","",""
"","764","image-keyboard-response","115","2.0.0","119631","psufftogyyo","heron","stimuli/field_25.jpg"," ","","","","","field","L","repeat"," ","98","","","","","",""
"","null","image-keyboard-response","116","2.0.0","120646","psufftogyyo","heron","stimuli/woods_20.jpg","null","","","","","woods","A","non-repeat","null","99","stimuli/woods_20.jpg","","","","",""
"","null","image-keyboard-response","117","2.0.0","121661","psufftogyyo","heron","stimuli/street_13.jpg","null","","","","","street","B","non-repeat","null","100","stimuli/street_13.jpg","","","","",""
"","null","image-keyboard-response","118","2.0.0","122677","psufftogyyo","heron","stimuli/desert_30.jpg","null","","","","","desert","C","non-repeat","null","101","stimuli/desert_30.jpg","","","","",""
"","null","image-keyboard-response","119","2.0.0","123681","psufftogyyo","heron","stimuli/playground_54.jpg","null","","","","","playground","J","non-repeat","null","102","stimuli/playground_54.jpg","","","","",""
"","null","image-keyboard-response","120","2.0.0","124691","psufftogyyo","heron","stimuli/gym_38.jpg","null","","","","","gym","K","non-repeat","null","103","stimuli/gym_38.jpg","","","","",""
"","null","image-keyboard-response","121","2.0.0","125705","psufftogyyo","heron","stimuli/field_25.jpg","null","","","","","field","L","non-repeat","null","104","stimuli/field_25.jpg","","","","",""
"","null","image-keyboard-response","122","2.0.0","126719","psufftogyyo","heron","stimuli/coast_26.jpg","null","","","","","coast","G","non-repeat","null","105","stimuli/coast_26.jpg","","","","",""
"","null","image-keyboard-response","123","2.0.0","127732","psufftogyyo","heron","stimuli/bar_63.jpg","null","","","","","bar","H","non-repeat","null","106","stimuli/bar_63.jpg","","","","",""
"","null","image-keyboard-response","124","2.0.0","128745","psufftogyyo","heron","stimuli/stream_68.jpg","null","","","","","stream","I","non-repeat","null","107","stimuli/stream_68.jpg","","","","",""
"","null","image-keyboard-response","125","2.0.0","129748","psufftogyyo","heron","stimuli/playground_54.jpg","null","","","","","playground","J","non-repeat","null","108","stimuli/playground_54.jpg","","","","",""
"","314","image-keyboard-response","126","2.0.0","130762","psufftogyyo","heron","stimuli/gym_38.jpg"," ","","","","","gym","K","non-repeat","null","109","stimuli/gym_38.jpg","","","","",""
"","null","image-keyboard-response","127","2.0.0","131777","psufftogyyo","heron","stimuli/field_25.jpg","null","","","","","field","L","non-repeat","null","110","stimuli/field_25.jpg","","","","",""
"","null","image-keyboard-response","128","2.0.0","132789","psufftogyyo","heron","stimuli/field_25.jpg","null","","","","","field","L","repeat"," ","110","","","","","",""
"","122","image-keyboard-response","129","2.0.0","133804","psufftogyyo","heron","stimuli/woods_20.jpg"," ","","","","","woods","A","non-repeat","null","111","stimuli/woods_20.jpg","","","","",""
"","null","image-keyboard-response","130","2.0.0","134805","psufftogyyo","heron","stimuli/street_13.jpg","null","","","","","street","B","non-repeat","null","112","stimuli/street_13.jpg","","","","",""
"","null","image-keyboard-response","131","2.0.0","135818","psufftogyyo","heron","stimuli/desert_30.jpg","null","","","","","desert","C","non-repeat","null","113","stimuli/desert_30.jpg","","","","",""
"","393","image-keyboard-response","132","2.0.0","136831","psufftogyyo","heron","stimuli/desert_30.jpg"," ","","","","","desert","C","repeat"," ","113","","","","","",""
"","null","image-keyboard-response","133","2.0.0","137840","psufftogyyo","heron","stimuli/bathroom_46.jpg","null","","","","","bathroom","D","non-repeat","null","114","stimuli/bathroom_46.jpg","","","","",""
"","343","image-keyboard-response","134","2.0.0","138856","psufftogyyo","heron","stimuli/kitchen_23.jpg"," ","","","","","kitchen","E","non-repeat","null","115","stimuli/kitchen_23.jpg","","","","",""
"","null","image-keyboard-response","135","2.0.0","139869","psufftogyyo","heron","stimuli/bridge_37.jpg","null","","","","","bridge","F","non-repeat","null","116","stimuli/bridge_37.jpg","","","","",""
"","null","image-keyboard-response","136","2.0.0","140885","psufftogyyo","heron","stimuli/playground_54.jpg","null","","","","","playground","J","non-repeat","null","117","stimuli/playground_54.jpg","","","","",""
"","632","image-keyboard-response","137","2.0.0","141900","psufftogyyo","heron","stimuli/playground_54.jpg"," ","","","","","playground","J","repeat"," ","117","","","","","",""
"","null","image-keyboard-response","138","2.0.0","142911","psufftogyyo","heron","stimuli/gym_38.jpg","null","","","","","gym","K","non-repeat","null","118","stimuli/gym_38.jpg","","","","",""
"","null","image-keyboard-response","139","2.0.0","143927","psufftogyyo","heron","stimuli/field_25.jpg","null","","","","","field","L","non-repeat","null","119","stimuli/field_25.jpg","","","","",""
"","null","image-keyboard-response","140","2.0.0","144932","psufftogyyo","heron","stimuli/coast_26.jpg","null","","","","","coast","G","non-repeat","null","120","stimuli/coast_26.jpg","","","","",""
"","null","image-keyboard-response","141","2.0.0","145936","psufftogyyo","heron","stimuli/bar_63.jpg","null","","","","","bar","H","non-repeat","null","121","stimuli/bar_63.jpg","","","","",""
"","null","image-keyboard-response","142","2.0.0","146938","psufftogyyo","heron","stimuli/stream_68.jpg","null","","","","","stream","I","non-repeat","null","122","stimuli/stream_68.jpg","","","","",""
"","null","image-keyboard-response","143","2.0.0","147944","psufftogyyo","heron","stimuli/playground_54.jpg","null","","","","","playground","J","non-repeat","null","123","stimuli/playground_54.jpg","","","","",""
"","null","image-keyboard-response","144","2.0.0","148958","psufftogyyo","heron","stimuli/playground_54.jpg","null","","","","","playground","J","repeat"," ","123","","","","","",""
"","null","image-keyboard-response","145","2.0.0","149972","psufftogyyo","heron","stimuli/gym_38.jpg","null","","","","","gym","K","non-repeat","null","124","stimuli/gym_38.jpg","","","","",""
"","null","image-keyboard-response","146","2.0.0","150986","psufftogyyo","heron","stimuli/field_25.jpg","null","","","","","field","L","non-repeat","null","125","stimuli/field_25.jpg","","","","",""
"","null","image-keyboard-response","147","2.0.0","152001","psufftogyyo","heron","stimuli/woods_20.jpg","null","","","","","woods","A","non-repeat","null","126","stimuli/woods_20.jpg","","","","",""
"","null","image-keyboard-response","148","2.0.0","153015","psufftogyyo","heron","stimuli/street_13.jpg","null","","","","","street","B","non-repeat","null","127","stimuli/street_13.jpg","","","","",""
"","null","image-keyboard-response","149","2.0.0","154029","psufftogyyo","heron","stimuli/desert_30.jpg","null","","","","","desert","C","non-repeat","null","128","stimuli/desert_30.jpg","","","","",""
"","null","image-keyboard-response","150","2.0.0","155043","psufftogyyo","heron","stimuli/bathroom_46.jpg","null","","","","","bathroom","D","non-repeat","null","129","stimuli/bathroom_46.jpg","","","","",""
"","null","image-keyboard-response","151","2.0.0","156059","psufftogyyo","heron","stimuli/kitchen_23.jpg","null","","","","","kitchen","E","non-repeat","null","130","stimuli/kitchen_23.jpg","","","","",""
"","null","image-keyboard-response","152","2.0.0","157072","psufftogyyo","heron","stimuli/bridge_37.jpg","null","","","","","bridge","F","non-repeat","null","131","stimuli/bridge_37.jpg","","","","",""
"","null","image-keyboard-response","153","2.0.0","158087","psufftogyyo","heron","stimuli/coast_26.jpg","null","","","","","coast","G","non-repeat","null","132","stimuli/coast_26.jpg","","","","",""
"","null","image-keyboard-response","154","2.0.0","159102","psufftogyyo","heron","stimuli/bar_63.jpg","null","","","","","bar","H","non-repeat","null","133","stimuli/bar_63.jpg","","","","",""
"","null","image-keyboard-response","155","2.0.0","160118","psufftogyyo","heron","stimuli/stream_68.jpg","null","","","","","stream","I","non-repeat","null","134","stimuli/stream_68.jpg","","","","",""
"","584","image-keyboard-response","156","2.0.0","161131","psufftogyyo","heron","stimuli/stream_68.jpg"," ","","","","","stream","I","repeat"," ","134","","","","","",""
"","null","image-keyboard-response","157","2.0.0","162145","psufftogyyo","heron","stimuli/playground_54.jpg","null","","","","","playground","J","non-repeat","null","135","stimuli/playground_54.jpg","","","","",""
"","null","image-keyboard-response","158","2.0.0","163161","psufftogyyo","heron","stimuli/gym_38.jpg","null","","","","","gym","K","non-repeat","null","136","stimuli/gym_38.jpg","","","","",""
"","null","image-keyboard-response","159","2.0.0","164176","psufftogyyo","heron","stimuli/field_25.jpg","null","","","","","field","L","non-repeat","null","137","stimuli/field_25.jpg","","","","",""
"","null","image-keyboard-response","160","2.0.0","165187","psufftogyyo","heron","stimuli/coast_26.jpg","null","","","","","coast","G","non-repeat","null","138","stimuli/coast_26.jpg","","","","",""
"","null","image-keyboard-response","161","2.0.0","166192","psufftogyyo","heron","stimuli/bar_63.jpg","null","","","","","bar","H","non-repeat","null","139","stimuli/bar_63.jpg","","","","",""
"","null","image-keyboard-response","162","2.0.0","167205","psufftogyyo","heron","stimuli/stream_68.jpg","null","","","","","stream","I","non-repeat","null","140","stimuli/stream_68.jpg","","","","",""
"","356","image-keyboard-response","163","2.0.0","168219","psufftogyyo","heron","stimuli/stream_68.jpg"," ","","","","","stream","I","repeat"," ","140","","","","","",""
"","null","image-keyboard-response","164","2.0.0","169232","psufftogyyo","heron","stimuli/bathroom_46.jpg","null","","","","","bathroom","D","non-repeat","null","141","stimuli/bathroom_46.jpg","","","","",""
"","null","image-keyboard-response","165","2.0.0","170245","psufftogyyo","heron","stimuli/kitchen_23.jpg","null","","","","","kitchen","E","non-repeat","null","142","stimuli/kitchen_23.jpg","","","","",""
"","null","image-keyboard-response","166","2.0.0","171259","psufftogyyo","heron","stimuli/bridge_37.jpg","null","","","","","bridge","F","non-repeat","null","143","stimuli/bridge_37.jpg","","","","",""
"","null","image-keyboard-response","167","2.0.0","172274","psufftogyyo","heron","stimuli/coast_26.jpg","null","","","","","coast","G","non-repeat","null","144","stimuli/coast_26.jpg","","","","",""
"","478","image-keyboard-response","168","2.0.0","173289","psufftogyyo","heron","stimuli/coast_26.jpg"," ","","","","","coast","G","repeat"," ","144","","","","","",""
"","null","image-keyboard-response","169","2.0.0","174291","psufftogyyo","heron","stimuli/bar_63.jpg","null","","","","","bar","H","non-repeat","null","145","stimuli/bar_63.jpg","","","","",""
"","null","image-keyboard-response","170","2.0.0","175302","psufftogyyo","heron","stimuli/stream_68.jpg","null","","","","","stream","I","non-repeat","null","146","stimuli/stream_68.jpg","","","","",""
"","372","image-keyboard-response","171","2.0.0","176316","psufftogyyo","heron","stimuli/stream_68.jpg"," ","","","","","stream","I","repeat"," ","146","","","","","",""
"","null","image-keyboard-response","172","2.0.0","177320","psufftogyyo","heron","stimuli/woods_20.jpg","null","","","","","woods","A","non-repeat","null","147","stimuli/woods_20.jpg","","","","",""
"","null","image-keyboard-response","173","2.0.0","178324","psufftogyyo","heron","stimuli/street_13.jpg","null","","","","","street","B","non-repeat","null","148","stimuli/street_13.jpg","","","","",""
"","null","image-keyboard-response","174","2.0.0","179337","psufftogyyo","heron","stimuli/desert_30.jpg","null","","","","","desert","C","non-repeat","null","149","stimuli/desert_30.jpg","","","","",""
"","null","image-keyboard-response","175","2.0.0","180352","psufftogyyo","heron","stimuli/coast_26.jpg","null","","","","","coast","G","non-repeat","null","150","stimuli/coast_26.jpg","","","","",""
"","null","image-keyboard-response","176","2.0.0","181359","psufftogyyo","heron","stimuli/bar_63.jpg","null","","","","","bar","H","non-repeat","null","151","stimuli/bar_63.jpg","","","","",""
"","null","image-keyboard-response","177","2.0.0","182373","psufftogyyo","heron","stimuli/stream_68.jpg","null","","","","","stream","I","non-repeat","null","152","stimuli/stream_68.jpg","","","","",""
"","null","image-keyboard-response","178","2.0.0","183389","psufftogyyo","heron","stimuli/playground_54.jpg","null","","","","","playground","J","non-repeat","null","153","stimuli/playground_54.jpg","","","","",""
"","null","image-keyboard-response","179","2.0.0","184405","psufftogyyo","heron","stimuli/gym_38.jpg","null","","","","","gym","K","non-repeat","null","154","stimuli/gym_38.jpg","","","","",""
"","null","image-keyboard-response","180","2.0.0","185419","psufftogyyo","heron","stimuli/field_25.jpg","null","","","","","field","L","non-repeat","null","155","stimuli/field_25.jpg","","","","",""
"","null","image-keyboard-response","181","2.0.0","186431","psufftogyyo","heron","stimuli/woods_20.jpg","null","","","","","woods","A","non-repeat","null","156","stimuli/woods_20.jpg","","","","",""
"","null","image-keyboard-response","182","2.0.0","187443","psufftogyyo","heron","stimuli/street_13.jpg","null","","","","","street","B","non-repeat","null","157","stimuli/street_13.jpg","","","","",""
"","null","image-keyboard-response","183","2.0.0","188445","psufftogyyo","heron","stimuli/desert_30.jpg","null","","","","","desert","C","non-repeat","null","158","stimuli/desert_30.jpg","","","","",""
"","null","image-keyboard-response","184","2.0.0","189460","psufftogyyo","heron","stimuli/bathroom_46.jpg","null","","","","","bathroom","D","non-repeat","null","159","stimuli/bathroom_46.jpg","","","","",""
"","null","image-keyboard-response","185","2.0.0","190472","psufftogyyo","heron","stimuli/kitchen_23.jpg","null","","","","","kitchen","E","non-repeat","null","160","stimuli/kitchen_23.jpg","","","","",""
"","null","image-keyboard-response","186","2.0.0","191474","psufftogyyo","heron","stimuli/bridge_37.jpg","null","","","","","bridge","F","non-repeat","null","161","stimuli/bridge_37.jpg","","","","",""
"","null","image-keyboard-response","187","2.0.0","192486","psufftogyyo","heron","stimuli/playground_54.jpg","null","","","","","playground","J","non-repeat","null","162","stimuli/playground_54.jpg","","","","",""
"","null","image-keyboard-response","188","2.0.0","193500","psufftogyyo","heron","stimuli/gym_38.jpg","null","","","","","gym","K","non-repeat","null","163","stimuli/gym_38.jpg","","","","",""
"","null","image-keyboard-response","189","2.0.0","194515","psufftogyyo","heron","stimuli/field_25.jpg","null","","","","","field","L","non-repeat","null","164","stimuli/field_25.jpg","","","","",""
"","null","image-keyboard-response","190","2.0.0","195530","psufftogyyo","heron","stimuli/coast_26.jpg","null","","","","","coast","G","non-repeat","null","165","stimuli/coast_26.jpg","","","","",""
"","null","image-keyboard-response","191","2.0.0","196539","psufftogyyo","heron","stimuli/bar_63.jpg","null","","","","","bar","H","non-repeat","null","166","stimuli/bar_63.jpg","","","","",""
"","null","image-keyboard-response","192","2.0.0","197554","psufftogyyo","heron","stimuli/stream_68.jpg","null","","","","","stream","I","non-repeat","null","167","stimuli/stream_68.jpg","","","","",""
"","null","image-keyboard-response","193","2.0.0","198566","psufftogyyo","heron","stimuli/woods_20.jpg","null","","","","","woods","A","non-repeat","null","168","stimuli/woods_20.jpg","","","","",""
"","654","image-keyboard-response","194","2.0.0","199569","psufftogyyo","heron","stimuli/woods_20.jpg"," ","","","","","woods","A","repeat"," ","168","","","","","",""
"","null","image-keyboard-response","195","2.0.0","200583","psufftogyyo","heron","stimuli/street_13.jpg","null","","","","","street","B","non-repeat","null","169","stimuli/street_13.jpg","","","","",""
"","null","image-keyboard-response","196","2.0.0","201589","psufftogyyo","heron","stimuli/desert_30.jpg","null","","","","","desert","C","non-repeat","null","170","stimuli/desert_30.jpg","","","","",""
"","null","image-keyboard-response","197","2.0.0","202601","psufftogyyo","heron","stimuli/bathroom_46.jpg","null","","","","","bathroom","D","non-repeat","null","171","stimuli/bathroom_46.jpg","","","","",""
"","null","image-keyboard-response","198","2.0.0","203613","psufftogyyo","heron","stimuli/kitchen_23.jpg","null","","","","","kitchen","E","non-repeat","null","172","stimuli/kitchen_23.jpg","","","","",""
"","null","image-keyboard-response","199","2.0.0","204628","psufftogyyo","heron","stimuli/bridge_37.jpg","null","","","","","bridge","F","non-repeat","null","173","stimuli/bridge_37.jpg","","","","",""
"","null","image-keyboard-response","200","2.0.0","205642","psufftogyyo","heron","stimuli/coast_26.jpg","null","","","","","coast","G","non-repeat","null","174","stimuli/coast_26.jpg","","","","",""
"","null","image-keyboard-response","201","2.0.0","206643","psufftogyyo","heron","stimuli/bar_63.jpg","null","","","","","bar","H","non-repeat","null","175","stimuli/bar_63.jpg","","","","",""
"","null","image-keyboard-response","202","2.0.0","207658","psufftogyyo","heron","stimuli/stream_68.jpg","null","","","","","stream","I","non-repeat","null","176","stimuli/stream_68.jpg","","","","",""
"","null","image-keyboard-response","203","2.0.0","208671","psufftogyyo","heron","stimuli/bathroom_46.jpg","null","","","","","bathroom","D","non-repeat","null","177","stimuli/bathroom_46.jpg","","","","",""
"","null","image-keyboard-response","204","2.0.0","209676","psufftogyyo","heron","stimuli/kitchen_23.jpg","null","","","","","kitchen","E","non-repeat","null","178","stimuli/kitchen_23.jpg","","","","",""
"","null","image-keyboard-response","205","2.0.0","210686","psufftogyyo","heron","stimuli/bridge_37.jpg","null","","","","","bridge","F","non-repeat","null","179","stimuli/bridge_37.jpg","","","","",""
"","null","image-keyboard-response","206","2.0.0","211688","psufftogyyo","heron","stimuli/bridge_37.jpg","null","","","","","bridge","F","repeat"," ","179","","","","","",""
"","null","image-keyboard-response","207","2.0.0","212702","psufftogyyo","heron","stimuli/woods_20.jpg","null","","","","","woods","A","non-repeat","null","180","stimuli/woods_20.jpg","","","","",""
"","null","image-keyboard-response","208","2.0.0","213716","psufftogyyo","heron","stimuli/street_13.jpg","null","","","","","street","B","non-repeat","null","181","stimuli/street_13.jpg","","","","",""
"","null","image-keyboard-response","209","2.0.0","214719","psufftogyyo","heron","stimuli/desert_30.jpg","null","","","","","desert","C","non-repeat","null","182","stimuli/desert_30.jpg","","","","",""
"","null","image-keyboard-response","210","2.0.0","215729","psufftogyyo","heron","stimuli/coast_26.jpg","null","","","","","coast","G","non-repeat","null","183","stimuli/coast_26.jpg","","","","",""
"","null","image-keyboard-response","211","2.0.0","216743","psufftogyyo","heron","stimuli/bar_63.jpg","null","","","","","bar","H","non-repeat","null","184","stimuli/bar_63.jpg","","","","",""
"","null","image-keyboard-response","212","2.0.0","217755","psufftogyyo","heron","stimuli/stream_68.jpg","null","","","","","stream","I","non-repeat","null","185","stimuli/stream_68.jpg","","","","",""
"","null","image-keyboard-response","213","2.0.0","218769","psufftogyyo","heron","stimuli/woods_20.jpg","null","","","","","woods","A","non-repeat","null","186","stimuli/woods_20.jpg","","","","",""
"","null","image-keyboard-response","214","2.0.0","219784","psufftogyyo","heron","stimuli/street_13.jpg","null","","","","","street","B","non-repeat","null","187","stimuli/street_13.jpg","","","","",""
"","null","image-keyboard-response","215","2.0.0","220799","psufftogyyo","heron","stimuli/desert_30.jpg","null","","","","","desert","C","non-repeat","null","188","stimuli/desert_30.jpg","","","","",""
"","null","image-keyboard-response","216","2.0.0","221811","psufftogyyo","heron","stimuli/coast_26.jpg","null","","","","","coast","G","non-repeat","null","189","stimuli/coast_26.jpg","","","","",""
"","null","image-keyboard-response","217","2.0.0","222825","psufftogyyo","heron","stimuli/bar_63.jpg","null","","","","","bar","H","non-repeat","null","190","stimuli/bar_63.jpg","","","","",""
"","null","image-keyboard-response","218","2.0.0","223840","psufftogyyo","heron","stimuli/stream_68.jpg","null","","","","","stream","I","non-repeat","null","191","stimuli/stream_68.jpg","","","","",""
"","357","image-keyboard-response","219","2.0.0","224841","psufftogyyo","heron","stimuli/stream_68.jpg"," ","","","","","stream","I","repeat"," ","191","","","","","",""
"","null","image-keyboard-response","220","2.0.0","225853","psufftogyyo","heron","stimuli/woods_20.jpg","null","","","","","woods","A","non-repeat","null","192","stimuli/woods_20.jpg","","","","",""
"","null","image-keyboard-response","221","2.0.0","226868","psufftogyyo","heron","stimuli/street_13.jpg","null","","","","","street","B","non-repeat","null","193","stimuli/street_13.jpg","","","","",""
"","null","image-keyboard-response","222","2.0.0","227882","psufftogyyo","heron","stimuli/desert_30.jpg","null","","","","","desert","C","non-repeat","null","194","stimuli/desert_30.jpg","","","","",""
"","null","image-keyboard-response","223","2.0.0","228898","psufftogyyo","heron","stimuli/playground_54.jpg","null","","","","","playground","J","non-repeat","null","195","stimuli/playground_54.jpg","","","","",""
"","null","image-keyboard-response","224","2.0.0","229909","psufftogyyo","heron","stimuli/gym_38.jpg","null","","","","","gym","K","non-repeat","null","196","stimuli/gym_38.jpg","","","","",""
"","null","image-keyboard-response","225","2.0.0","230924","psufftogyyo","heron","stimuli/field_25.jpg","null","","","","","field","L","non-repeat","null","197","stimuli/field_25.jpg","","","","",""
"","null","image-keyboard-response","226","2.0.0","231938","psufftogyyo","heron","stimuli/woods_20.jpg","null","","","","","woods","A","non-repeat","null","198","stimuli/woods_20.jpg","","","","",""
"","null","image-keyboard-response","227","2.0.0","232952","psufftogyyo","heron","stimuli/street_13.jpg","null","","","","","street","B","non-repeat","null","199","stimuli/street_13.jpg","","","","",""
"","null","image-keyboard-response","228","2.0.0","233964","psufftogyyo","heron","stimuli/desert_30.jpg","null","","","","","desert","C","non-repeat","null","200","stimuli/desert_30.jpg","","","","",""
"","null","image-keyboard-response","229","2.0.0","234979","psufftogyyo","heron","stimuli/coast_26.jpg","null","","","","","coast","G","non-repeat","null","201","stimuli/coast_26.jpg","","","","",""
"","null","image-keyboard-response","230","2.0.0","235991","psufftogyyo","heron","stimuli/bar_63.jpg","null","","","","","bar","H","non-repeat","null","202","stimuli/bar_63.jpg","","","","",""
"","null","image-keyboard-response","231","2.0.0","237003","psufftogyyo","heron","stimuli/stream_68.jpg","null","","","","","stream","I","non-repeat","null","203","stimuli/stream_68.jpg","","","","",""
"","null","image-keyboard-response","232","2.0.0","238005","psufftogyyo","heron","stimuli/woods_20.jpg","null","","","","","woods","A","non-repeat","null","204","stimuli/woods_20.jpg","","","","",""
"","577","image-keyboard-response","233","2.0.0","239020","psufftogyyo","heron","stimuli/woods_20.jpg"," ","","","","","woods","A","repeat"," ","204","","","","","",""
"","null","image-keyboard-response","234","2.0.0","240036","psufftogyyo","heron","stimuli/street_13.jpg","null","","","","","street","B","non-repeat","null","205","stimuli/street_13.jpg","","","","",""
"","null","image-keyboard-response","235","2.0.0","241046","psufftogyyo","heron","stimuli/desert_30.jpg","null","","","","","desert","C","non-repeat","null","206","stimuli/desert_30.jpg","","","","",""
"","null","image-keyboard-response","236","2.0.0","242060","psufftogyyo","heron","stimuli/playground_54.jpg","null","","","","","playground","J","non-repeat","null","207","stimuli/playground_54.jpg","","","","",""
"","505","image-keyboard-response","237","2.0.0","243074","psufftogyyo","heron","stimuli/playground_54.jpg"," ","","","","","playground","J","repeat"," ","207","","","","","",""
"","null","image-keyboard-response","238","2.0.0","244087","psufftogyyo","heron","stimuli/gym_38.jpg","null","","","","","gym","K","non-repeat","null","208","stimuli/gym_38.jpg","","","","",""
"","null","image-keyboard-response","239","2.0.0","245103","psufftogyyo","heron","stimuli/field_25.jpg","null","","","","","field","L","non-repeat","null","209","stimuli/field_25.jpg","","","","",""
"","823","image-keyboard-response","240","2.0.0","246115","psufftogyyo","heron","stimuli/field_25.jpg"," ","","","","","field","L","repeat"," ","209","","","","","",""
"","null","image-keyboard-response","241","2.0.0","247132","psufftogyyo","heron","stimuli/bathroom_46.jpg","null","","","","","bathroom","D","non-repeat","null","210","stimuli/bathroom_46.jpg","","","","",""
"","null","image-keyboard-response","242","2.0.0","248148","psufftogyyo","heron","stimuli/kitchen_23.jpg","null","","","","","kitchen","E","non-repeat","null","211","stimuli/kitchen_23.jpg","","","","",""
"","null","image-keyboard-response","243","2.0.0","249161","psufftogyyo","heron","stimuli/bridge_37.jpg","null","","","","","bridge","F","non-repeat","null","212","stimuli/bridge_37.jpg","","","","",""
"","null","image-keyboard-response","244","2.0.0","250162","psufftogyyo","heron","stimuli/playground_54.jpg","null","","","","","playground","J","non-repeat","null","213","stimuli/playground_54.jpg","","","","",""
"","375","image-keyboard-response","245","2.0.0","251178","psufftogyyo","heron","stimuli/playground_54.jpg"," ","","","","","playground","J","repeat"," ","213","","","","","",""
"","null","image-keyboard-response","246","2.0.0","252181","psufftogyyo","heron","stimuli/gym_38.jpg","null","","","","","gym","K","non-repeat","null","214","stimuli/gym_38.jpg","","","","",""
"","null","image-keyboard-response","247","2.0.0","253182","psufftogyyo","heron","stimuli/field_25.jpg","null","","","","","field","L","non-repeat","null","215","stimuli/field_25.jpg","","","","",""
"","null","image-keyboard-response","248","2.0.0","254193","psufftogyyo","heron","stimuli/coast_26.jpg","null","","","","","coast","G","non-repeat","null","216","stimuli/coast_26.jpg","","","","",""
"","null","image-keyboard-response","249","2.0.0","255205","psufftogyyo","heron","stimuli/bar_63.jpg","null","","","","","bar","H","non-repeat","null","217","stimuli/bar_63.jpg","","","","",""
"","null","image-keyboard-response","250","2.0.0","256219","psufftogyyo","heron","stimuli/stream_68.jpg","null","","","","","stream","I","non-repeat","null","218","stimuli/stream_68.jpg","","","","",""
"","null","image-keyboard-response","251","2.0.0","257233","psufftogyyo","heron","stimuli/playground_54.jpg","null","","","","","playground","J","non-repeat","null","219","stimuli/playground_54.jpg","","","","",""
"","null","image-keyboard-response","252","2.0.0","258246","psufftogyyo","heron","stimuli/gym_38.jpg","null","","","","","gym","K","non-repeat","null","220","stimuli/gym_38.jpg","","","","",""
"","null","image-keyboard-response","253","2.0.0","259247","psufftogyyo","heron","stimuli/field_25.jpg","null","","","","","field","L","non-repeat","null","221","stimuli/field_25.jpg","","","","",""
"","null","image-keyboard-response","254","2.0.0","260263","psufftogyyo","heron","stimuli/woods_20.jpg","null","","","","","woods","A","non-repeat","null","222","stimuli/woods_20.jpg","","","","",""
"","null","image-keyboard-response","255","2.0.0","261275","psufftogyyo","heron","stimuli/street_13.jpg","null","","","","","street","B","non-repeat","null","223","stimuli/street_13.jpg","","","","",""
"","null","image-keyboard-response","256","2.0.0","262285","psufftogyyo","heron","stimuli/desert_30.jpg","null","","","","","desert","C","non-repeat","null","224","stimuli/desert_30.jpg","","","","",""
"","null","image-keyboard-response","257","2.0.0","263301","psufftogyyo","heron","stimuli/playground_54.jpg","null","","","","","playground","J","non-repeat","null","225","stimuli/playground_54.jpg","","","","",""
"","null","image-keyboard-response","258","2.0.0","264317","psufftogyyo","heron","stimuli/gym_38.jpg","null","","","","","gym","K","non-repeat","null","226","stimuli/gym_38.jpg","","","","",""
"","null","image-keyboard-response","259","2.0.0","265331","psufftogyyo","heron","stimuli/field_25.jpg","null","","","","","field","L","non-repeat","null","227","stimuli/field_25.jpg","","","","",""
"","645","image-keyboard-response","260","2.0.0","266332","psufftogyyo","heron","stimuli/field_25.jpg"," ","","","","","field","L","repeat"," ","227","","","","","",""
"","null","image-keyboard-response","261","2.0.0","267343","psufftogyyo","heron","stimuli/bathroom_46.jpg","null","","","","","bathroom","D","non-repeat","null","228","stimuli/bathroom_46.jpg","","","","",""
"","null","image-keyboard-response","262","2.0.0","268358","psufftogyyo","heron","stimuli/bathroom_46.jpg","null","","","","","bathroom","D","repeat"," ","228","","","","","",""
"","62","image-keyboard-response","263","2.0.0","269368","psufftogyyo","heron","stimuli/kitchen_23.jpg"," ","","","","","kitchen","E","non-repeat","null","229","stimuli/kitchen_23.jpg","","","","",""
"","null","image-keyboard-response","264","2.0.0","270384","psufftogyyo","heron","stimuli/bridge_37.jpg","null","","","","","bridge","F","non-repeat","null","230","stimuli/bridge_37.jpg","","","","",""
"","null","image-keyboard-response","265","2.0.0","271395","psufftogyyo","heron","stimuli/playground_54.jpg","null","","","","","playground","J","non-repeat","null","231","stimuli/playground_54.jpg","","","","",""
"","null","image-keyboard-response","266","2.0.0","272408","psufftogyyo","heron","stimuli/gym_38.jpg","null","","","","","gym","K","non-repeat","null","232","stimuli/gym_38.jpg","","","","",""
"","null","image-keyboard-response","267","2.0.0","273410","psufftogyyo","heron","stimuli/field_25.jpg","null","","","","","field","L","non-repeat","null","233","stimuli/field_25.jpg","","","","",""
"","null","image-keyboard-response","268","2.0.0","274424","psufftogyyo","heron","stimuli/coast_26.jpg","null","","","","","coast","G","non-repeat","null","234","stimuli/coast_26.jpg","","","","",""
"","515","image-keyboard-response","269","2.0.0","275440","psufftogyyo","heron","stimuli/coast_26.jpg"," ","","","","","coast","G","repeat"," ","234","","","","","",""
"","null","image-keyboard-response","270","2.0.0","276455","psufftogyyo","heron","stimuli/bar_63.jpg","null","","","","","bar","H","non-repeat","null","235","stimuli/bar_63.jpg","","","","",""
"","null","image-keyboard-response","271","2.0.0","277469","psufftogyyo","heron","stimuli/stream_68.jpg","null","","","","","stream","I","non-repeat","null","236","stimuli/stream_68.jpg","","","","",""
"","678","image-keyboard-response","272","2.0.0","278477","psufftogyyo","heron","stimuli/bathroom_46.jpg"," ","","","","","bathroom","D","non-repeat","null","237","stimuli/bathroom_46.jpg","","","","",""
"","null","image-keyboard-response","273","2.0.0","279490","psufftogyyo","heron","stimuli/bathroom_46.jpg","null","","","","","bathroom","D","repeat"," ","237","","","","","",""
"","null","image-keyboard-response","274","2.0.0","280501","psufftogyyo","heron","stimuli/kitchen_23.jpg","null","","","","","kitchen","E","non-repeat","null","238","stimuli/kitchen_23.jpg","","","","",""
"","null","image-keyboard-response","275","2.0.0","281516","psufftogyyo","heron","stimuli/bridge_37.jpg","null","","","","","bridge","F","non-repeat","null","239","stimuli/bridge_37.jpg","","","","",""
"","641","image-keyboard-response","276","2.0.0","282530","psufftogyyo","heron","stimuli/bridge_37.jpg"," ","","","","","bridge","F","repeat"," ","239","","","","","",""
"","null","image-keyboard-response","277","2.0.0","283542","psufftogyyo","heron","stimuli/coast_26.jpg","null","","","","","coast","G","non-repeat","null","240","stimuli/coast_26.jpg","","","","",""
"","null","image-keyboard-response","278","2.0.0","284555","psufftogyyo","heron","stimuli/bar_63.jpg","null","","","","","bar","H","non-repeat","null","241","stimuli/bar_63.jpg","","","","",""
"","null","image-keyboard-response","279","2.0.0","285570","psufftogyyo","heron","stimuli/stream_68.jpg","null","","","","","stream","I","non-repeat","null","242","stimuli/stream_68.jpg","","","","",""
"","null","image-keyboard-response","280","2.0.0","286572","psufftogyyo","heron","stimuli/bathroom_46.jpg","null","","","","","bathroom","D","non-repeat","null","243","stimuli/bathroom_46.jpg","","","","",""
"","917","image-keyboard-response","281","2.0.0","287574","psufftogyyo","heron","stimuli/kitchen_23.jpg"," ","","","","","kitchen","E","non-repeat","null","244","stimuli/kitchen_23.jpg","","","","",""
"","null","image-keyboard-response","282","2.0.0","288588","psufftogyyo","heron","stimuli/bridge_37.jpg","null","","","","","bridge","F","non-repeat","null","245","stimuli/bridge_37.jpg","","","","",""
"","null","image-keyboard-response","283","2.0.0","289601","psufftogyyo","heron","stimuli/woods_20.jpg","null","","","","","woods","A","non-repeat","null","246","stimuli/woods_20.jpg","","","","",""
"","null","image-keyboard-response","284","2.0.0","290616","psufftogyyo","heron","stimuli/street_13.jpg","null","","","","","street","B","non-repeat","null","247","stimuli/street_13.jpg","","","","",""
"","null","image-keyboard-response","285","2.0.0","291628","psufftogyyo","heron","stimuli/desert_30.jpg","null","","","","","desert","C","non-repeat","null","248","stimuli/desert_30.jpg","","","","",""
"","null","image-keyboard-response","286","2.0.0","292641","psufftogyyo","heron","stimuli/playground_54.jpg","null","","","","","playground","J","non-repeat","null","249","stimuli/playground_54.jpg","","","","",""
"","null","image-keyboard-response","287","2.0.0","293654","psufftogyyo","heron","stimuli/gym_38.jpg","null","","","","","gym","K","non-repeat","null","250","stimuli/gym_38.jpg","","","","",""
"","null","image-keyboard-response","288","2.0.0","294669","psufftogyyo","heron","stimuli/field_25.jpg","null","","","","","field","L","non-repeat","null","251","stimuli/field_25.jpg","","","","",""
"","449","image-keyboard-response","289","2.0.0","295679","psufftogyyo","heron","stimuli/field_25.jpg"," ","","","","","field","L","repeat"," ","251","","","","","",""
"","null","image-keyboard-response","290","2.0.0","296692","psufftogyyo","heron","stimuli/bathroom_46.jpg","null","","","","","bathroom","D","non-repeat","null","252","stimuli/bathroom_46.jpg","","","","",""
"","null","image-keyboard-response","291","2.0.0","297694","psufftogyyo","heron","stimuli/kitchen_23.jpg","null","","","","","kitchen","E","non-repeat","null","253","stimuli/kitchen_23.jpg","","","","",""
"","null","image-keyboard-response","292","2.0.0","298708","psufftogyyo","heron","stimuli/bridge_37.jpg","null","","","","","bridge","F","non-repeat","null","254","stimuli/bridge_37.jpg","","","","",""
"","null","image-keyboard-response","293","2.0.0","299711","psufftogyyo","heron","stimuli/woods_20.jpg","null","","","","","woods","A","non-repeat","null","255","stimuli/woods_20.jpg","","","","",""
"","591","image-keyboard-response","294","2.0.0","300726","psufftogyyo","heron","stimuli/woods_20.jpg"," ","","","","","woods","A","repeat"," ","255","","","","","",""
"","null","image-keyboard-response","295","2.0.0","301740","psufftogyyo","heron","stimuli/street_13.jpg","null","","","","","street","B","non-repeat","null","256","stimuli/street_13.jpg","","","","",""
"","null","image-keyboard-response","296","2.0.0","302747","psufftogyyo","heron","stimuli/desert_30.jpg","null","","","","","desert","C","non-repeat","null","257","stimuli/desert_30.jpg","","","","",""
"","null","image-keyboard-response","297","2.0.0","303760","psufftogyyo","heron","stimuli/desert_30.jpg","null","","","","","desert","C","repeat"," ","257","","","","","",""
"","null","image-keyboard-response","298","2.0.0","304762","psufftogyyo","heron","stimuli/bathroom_46.jpg","null","","","","","bathroom","D","non-repeat","null","258","stimuli/bathroom_46.jpg","","","","",""
"","null","image-keyboard-response","299","2.0.0","305769","psufftogyyo","heron","stimuli/kitchen_23.jpg","null","","","","","kitchen","E","non-repeat","null","259","stimuli/kitchen_23.jpg","","","","",""
"","null","image-keyboard-response","300","2.0.0","306780","psufftogyyo","heron","stimuli/bridge_37.jpg","null","","","","","bridge","F","non-repeat","null","260","stimuli/bridge_37.jpg","","","","",""
"","null","image-keyboard-response","301","2.0.0","307794","psufftogyyo","heron","stimuli/playground_54.jpg","null","","","","","playground","J","non-repeat","null","261","stimuli/playground_54.jpg","","","","",""
"","null","image-keyboard-response","302","2.0.0","308810","psufftogyyo","heron","stimuli/gym_38.jpg","null","","","","","gym","K","non-repeat","null","262","stimuli/gym_38.jpg","","","","",""
"","null","image-keyboard-response","303","2.0.0","309822","psufftogyyo","heron","stimuli/field_25.jpg","null","","","","","field","L","non-repeat","null","263","stimuli/field_25.jpg","","","","",""
"","null","image-keyboard-response","304","2.0.0","310836","psufftogyyo","heron","stimuli/coast_26.jpg","null","","","","","coast","G","non-repeat","null","264","stimuli/coast_26.jpg","","","","",""
"","null","image-keyboard-response","305","2.0.0","311851","psufftogyyo","heron","stimuli/bar_63.jpg","null","","","","","bar","H","non-repeat","null","265","stimuli/bar_63.jpg","","","","",""
"","null","image-keyboard-response","306","2.0.0","312864","psufftogyyo","heron","stimuli/stream_68.jpg","null","","","","","stream","I","non-repeat","null","266","stimuli/stream_68.jpg","","","","",""
"","null","image-keyboard-response","307","2.0.0","313877","psufftogyyo","heron","stimuli/bathroom_46.jpg","null","","","","","bathroom","D","non-repeat","null","267","stimuli/bathroom_46.jpg","","","","",""
"","null","image-keyboard-response","308","2.0.0","314889","psufftogyyo","heron","stimuli/kitchen_23.jpg","null","","","","","kitchen","E","non-repeat","null","268","stimuli/kitchen_23.jpg","","","","",""
"","null","image-keyboard-response","309","2.0.0","315900","psufftogyyo","heron","stimuli/bridge_37.jpg","null","","","","","bridge","F","non-repeat","null","269","stimuli/bridge_37.jpg","","","","",""
"","null","image-keyboard-response","310","2.0.0","316913","psufftogyyo","heron","stimuli/coast_26.jpg","null","","","","","coast","G","non-repeat","null","270","stimuli/coast_26.jpg","","","","",""
"","null","image-keyboard-response","311","2.0.0","317926","psufftogyyo","heron","stimuli/bar_63.jpg","null","","","","","bar","H","non-repeat","null","271","stimuli/bar_63.jpg","","","","",""
"","null","image-keyboard-response","312","2.0.0","318927","psufftogyyo","heron","stimuli/stream_68.jpg","null","","","","","stream","I","non-repeat","null","272","stimuli/stream_68.jpg","","","","",""
"","null","image-keyboard-response","313","2.0.0","319941","psufftogyyo","heron","stimuli/bathroom_46.jpg","null","","","","","bathroom","D","non-repeat","null","273","stimuli/bathroom_46.jpg","","","","",""
"","null","image-keyboard-response","314","2.0.0","320957","psufftogyyo","heron","stimuli/kitchen_23.jpg","null","","","","","kitchen","E","non-repeat","null","274","stimuli/kitchen_23.jpg","","","","",""
"","null","image-keyboard-response","315","2.0.0","321969","psufftogyyo","heron","stimuli/bridge_37.jpg","null","","","","","bridge","F","non-repeat","null","275","stimuli/bridge_37.jpg","","","","",""
"","null","image-keyboard-response","316","2.0.0","322985","psufftogyyo","heron","stimuli/playground_54.jpg","null","","","","","playground","J","non-repeat","null","276","stimuli/playground_54.jpg","","","","",""
"","null","image-keyboard-response","317","2.0.0","323998","psufftogyyo","heron","stimuli/gym_38.jpg","null","","","","","gym","K","non-repeat","null","277","stimuli/gym_38.jpg","","","","",""
"","null","image-keyboard-response","318","2.0.0","325013","psufftogyyo","heron","stimuli/field_25.jpg","null","","","","","field","L","non-repeat","null","278","stimuli/field_25.jpg","","","","",""
"","null","image-keyboard-response","319","2.0.0","326021","psufftogyyo","heron","stimuli/coast_26.jpg","null","","","","","coast","G","non-repeat","null","279","stimuli/coast_26.jpg","","","","",""
"","null","image-keyboard-response","320","2.0.0","327038","psufftogyyo","heron","stimuli/bar_63.jpg","null","","","","","bar","H","non-repeat","null","280","stimuli/bar_63.jpg","","","","",""
"","null","image-keyboard-response","321","2.0.0","328040","psufftogyyo","heron","stimuli/stream_68.jpg","null","","","","","stream","I","non-repeat","null","281","stimuli/stream_68.jpg","","","","",""
"","null","image-keyboard-response","322","2.0.0","329041","psufftogyyo","heron","stimuli/playground_54.jpg","null","","","","","playground","J","non-repeat","null","282","stimuli/playground_54.jpg","","","","",""
"","null","image-keyboard-response","323","2.0.0","330057","psufftogyyo","heron","stimuli/gym_38.jpg","null","","","","","gym","K","non-repeat","null","283","stimuli/gym_38.jpg","","","","",""
"","null","image-keyboard-response","324","2.0.0","331058","psufftogyyo","heron","stimuli/field_25.jpg","null","","","","","field","L","non-repeat","null","284","stimuli/field_25.jpg","","","","",""
"","null","image-keyboard-response","325","2.0.0","332068","psufftogyyo","heron","stimuli/woods_20.jpg","null","","","","","woods","A","non-repeat","null","285","stimuli/woods_20.jpg","","","","",""
"","435","image-keyboard-response","326","2.0.0","333082","psufftogyyo","heron","stimuli/woods_20.jpg"," ","","","","","woods","A","repeat"," ","285","","","","","",""
"","null","image-keyboard-response","327","2.0.0","334094","psufftogyyo","heron","stimuli/street_13.jpg","null","","","","","street","B","non-repeat","null","286","stimuli/street_13.jpg","","","","",""
"","null","image-keyboard-response","328","2.0.0","335108","psufftogyyo","heron","stimuli/desert_30.jpg","null","","","","","desert","C","non-repeat","null","287","stimuli/desert_30.jpg","","","","",""
"","481","image-keyboard-response","329","2.0.0","336120","psufftogyyo","heron","stimuli/desert_30.jpg"," ","","","","","desert","C","repeat"," ","287","","","","","",""
"","null","image-keyboard-response","330","2.0.0","337132","psufftogyyo","heron","stimuli/bathroom_46.jpg","null","","","","","bathroom","D","non-repeat","null","288","stimuli/bathroom_46.jpg","","","","",""
"","293","image-keyboard-response","331","2.0.0","338146","psufftogyyo","heron","stimuli/kitchen_23.jpg"," ","","","","","kitchen","E","non-repeat","null","289","stimuli/kitchen_23.jpg","","","","",""
"","null","image-keyboard-response","332","2.0.0","339159","psufftogyyo","heron","stimuli/bridge_37.jpg","null","","","","","bridge","F","non-repeat","null","290","stimuli/bridge_37.jpg","","","","",""
"","null","image-keyboard-response","333","2.0.0","340174","psufftogyyo","heron","stimuli/coast_26.jpg","null","","","","","coast","G","non-repeat","null","291","stimuli/coast_26.jpg","","","","",""
"","null","image-keyboard-response","334","2.0.0","341191","psufftogyyo","heron","stimuli/bar_63.jpg","null","","","","","bar","H","non-repeat","null","292","stimuli/bar_63.jpg","","","","",""
"","null","image-keyboard-response","335","2.0.0","342194","psufftogyyo","heron","stimuli/stream_68.jpg","null","","","","","stream","I","non-repeat","null","293","stimuli/stream_68.jpg","","","","",""
"","374","image-keyboard-response","336","2.0.0","343208","psufftogyyo","heron","stimuli/stream_68.jpg"," ","","","","","stream","I","repeat"," ","293","","","","","",""
"","null","image-keyboard-response","337","2.0.0","344223","psufftogyyo","heron","stimuli/bathroom_46.jpg","null","","","","","bathroom","D","non-repeat","null","294","stimuli/bathroom_46.jpg","","","","",""
"","null","image-keyboard-response","338","2.0.0","345236","psufftogyyo","heron","stimuli/kitchen_23.jpg","null","","","","","kitchen","E","non-repeat","null","295","stimuli/kitchen_23.jpg","","","","",""
"","null","image-keyboard-response","339","2.0.0","346252","psufftogyyo","heron","stimuli/bridge_37.jpg","null","","","","","bridge","F","non-repeat","null","296","stimuli/bridge_37.jpg","","","","",""
"","637","image-keyboard-response","340","2.0.0","347267","psufftogyyo","heron","stimuli/bridge_37.jpg"," ","","","","","bridge","F","repeat"," ","296","","","","","",""
"","null","image-keyboard-response","341","2.0.0","348278","psufftogyyo","heron","stimuli/playground_54.jpg","null","","","","","playground","J","non-repeat","null","297","stimuli/playground_54.jpg","","","","",""
"","null","image-keyboard-response","342","2.0.0","349293","psufftogyyo","heron","stimuli/gym_38.jpg","null","","","","","gym","K","non-repeat","null","298","stimuli/gym_38.jpg","","","","",""
"","null","image-keyboard-response","343","2.0.0","350303","psufftogyyo","heron","stimuli/field_25.jpg","null","","","","","field","L","non-repeat","null","299","stimuli/field_25.jpg","","","","",""
"","null","image-keyboard-response","344","2.0.0","351320","psufftogyyo","heron","stimuli/woods_20.jpg","null","","","","","woods","A","non-repeat","null","300","stimuli/woods_20.jpg","","","","",""
"","null","image-keyboard-response","345","2.0.0","352333","psufftogyyo","heron","stimuli/street_13.jpg","null","","","","","street","B","non-repeat","null","301","stimuli/street_13.jpg","","","","",""
"","null","image-keyboard-response","346","2.0.0","353349","psufftogyyo","heron","stimuli/desert_30.jpg","null","","","","","desert","C","non-repeat","null","302","stimuli/desert_30.jpg","","","","",""
"","null","image-keyboard-response","347","2.0.0","354364","psufftogyyo","heron","stimuli/coast_26.jpg","null","","","","","coast","G","non-repeat","null","303","stimuli/coast_26.jpg","","","","",""
"","null","image-keyboard-response","348","2.0.0","355378","psufftogyyo","heron","stimuli/bar_63.jpg","null","","","","","bar","H","non-repeat","null","304","stimuli/bar_63.jpg","","","","",""
"","null","image-keyboard-response","349","2.0.0","356389","psufftogyyo","heron","stimuli/stream_68.jpg","null","","","","","stream","I","non-repeat","null","305","stimuli/stream_68.jpg","","","","",""
"","null","image-keyboard-response","350","2.0.0","357403","psufftogyyo","heron","stimuli/bathroom_46.jpg","null","","","","","bathroom","D","non-repeat","null","306","stimuli/bathroom_46.jpg","","","","",""
"","null","image-keyboard-response","351","2.0.0","358411","psufftogyyo","heron","stimuli/kitchen_23.jpg","null","","","","","kitchen","E","non-repeat","null","307","stimuli/kitchen_23.jpg","","","","",""
"","null","image-keyboard-response","352","2.0.0","359416","psufftogyyo","heron","stimuli/bridge_37.jpg","null","","","","","bridge","F","non-repeat","null","308","stimuli/bridge_37.jpg","","","","",""
"","null","image-keyboard-response","353","2.0.0","360429","psufftogyyo","heron","stimuli/woods_20.jpg","null","","","","","woods","A","non-repeat","null","309","stimuli/woods_20.jpg","","","","",""
"","null","image-keyboard-response","354","2.0.0","361443","psufftogyyo","heron","stimuli/street_13.jpg","null","","","","","street","B","non-repeat","null","310","stimuli/street_13.jpg","","","","",""
"","null","image-keyboard-response","355","2.0.0","362445","psufftogyyo","heron","stimuli/desert_30.jpg","null","","","","","desert","C","non-repeat","null","311","stimuli/desert_30.jpg","","","","",""
"","null","image-keyboard-response","356","2.0.0","363457","psufftogyyo","heron","stimuli/bathroom_46.jpg","null","","","","","bathroom","D","non-repeat","null","312","stimuli/bathroom_46.jpg","","","","",""
"","564","image-keyboard-response","357","2.0.0","364469","psufftogyyo","heron","stimuli/kitchen_23.jpg"," ","","","","","kitchen","E","non-repeat","null","313","stimuli/kitchen_23.jpg","","","","",""
"","null","image-keyboard-response","358","2.0.0","365483","psufftogyyo","heron","stimuli/bridge_37.jpg","null","","","","","bridge","F","non-repeat","null","314","stimuli/bridge_37.jpg","","","","",""
"","null","image-keyboard-response","359","2.0.0","366497","psufftogyyo","heron","stimuli/woods_20.jpg","null","","","","","woods","A","non-repeat","null","315","stimuli/woods_20.jpg","","","","",""
"","null","image-keyboard-response","360","2.0.0","367511","psufftogyyo","heron","stimuli/street_13.jpg","null","","","","","street","B","non-repeat","null","316","stimuli/street_13.jpg","","","","",""
"","null","image-keyboard-response","361","2.0.0","368522","psufftogyyo","heron","stimuli/desert_30.jpg","null","","","","","desert","C","non-repeat","null","317","stimuli/desert_30.jpg","","","","",""
"","null","image-keyboard-response","362","2.0.0","369536","psufftogyyo","heron","stimuli/coast_26.jpg","null","","","","","coast","G","non-repeat","null","318","stimuli/coast_26.jpg","","","","",""
"","null","image-keyboard-response","363","2.0.0","370551","psufftogyyo","heron","stimuli/bar_63.jpg","null","","","","","bar","H","non-repeat","null","319","stimuli/bar_63.jpg","","","","",""
"","null","image-keyboard-response","364","2.0.0","371564","psufftogyyo","heron","stimuli/stream_68.jpg","null","","","","","stream","I","non-repeat","null","320","stimuli/stream_68.jpg","","","","",""
"","null","image-keyboard-response","365","2.0.0","372579","psufftogyyo","heron","stimuli/bathroom_46.jpg","null","","","","","bathroom","D","non-repeat","null","321","stimuli/bathroom_46.jpg","","","","",""
"","null","image-keyboard-response","366","2.0.0","373582","psufftogyyo","heron","stimuli/kitchen_23.jpg","null","","","","","kitchen","E","non-repeat","null","322","stimuli/kitchen_23.jpg","","","","",""
"","null","image-keyboard-response","367","2.0.0","374596","psufftogyyo","heron","stimuli/bridge_37.jpg","null","","","","","bridge","F","non-repeat","null","323","stimuli/bridge_37.jpg","","","","",""
"","null","image-keyboard-response","368","2.0.0","375610","psufftogyyo","heron","stimuli/coast_26.jpg","null","","","","","coast","G","non-repeat","null","324","stimuli/coast_26.jpg","","","","",""
"","null","image-keyboard-response","369","2.0.0","376622","psufftogyyo","heron","stimuli/bar_63.jpg","null","","","","","bar","H","non-repeat","null","325","stimuli/bar_63.jpg","","","","",""
"","null","image-keyboard-response","370","2.0.0","377637","psufftogyyo","heron","stimuli/stream_68.jpg","null","","","","","stream","I","non-repeat","null","326","stimuli/stream_68.jpg","","","","",""
"","405","image-keyboard-response","371","2.0.0","378651","psufftogyyo","heron","stimuli/stream_68.jpg"," ","","","","","stream","I","repeat"," ","326","","","","","",""
"","null","image-keyboard-response","372","2.0.0","379667","psufftogyyo","heron","stimuli/woods_20.jpg","null","","","","","woods","A","non-repeat","null","327","stimuli/woods_20.jpg","","","","",""
"","556","image-keyboard-response","373","2.0.0","380669","psufftogyyo","heron","stimuli/woods_20.jpg"," ","","","","","woods","A","repeat"," ","327","","","","","",""
"","null","image-keyboard-response","374","2.0.0","381681","psufftogyyo","heron","stimuli/street_13.jpg","null","","","","","street","B","non-repeat","null","328","stimuli/street_13.jpg","","","","",""
"","null","image-keyboard-response","375","2.0.0","382695","psufftogyyo","heron","stimuli/desert_30.jpg","null","","","","","desert","C","non-repeat","null","329","stimuli/desert_30.jpg","","","","",""
"","null","image-keyboard-response","376","2.0.0","383711","psufftogyyo","heron","stimuli/bathroom_46.jpg","null","","","","","bathroom","D","non-repeat","null","330","stimuli/bathroom_46.jpg","","","","",""
"","589","image-keyboard-response","377","2.0.0","384725","psufftogyyo","heron","stimuli/kitchen_23.jpg"," ","","","","","kitchen","E","non-repeat","null","331","stimuli/kitchen_23.jpg","","","","",""
"","null","image-keyboard-response","378","2.0.0","385728","psufftogyyo","heron","stimuli/bridge_37.jpg","null","","","","","bridge","F","non-repeat","null","332","stimuli/bridge_37.jpg","","","","",""
"","null","image-keyboard-response","379","2.0.0","386741","psufftogyyo","heron","stimuli/woods_20.jpg","null","","","","","woods","A","non-repeat","null","333","stimuli/woods_20.jpg","","","","",""
"","null","image-keyboard-response","380","2.0.0","387752","psufftogyyo","heron","stimuli/street_13.jpg","null","","","","","street","B","non-repeat","null","334","stimuli/street_13.jpg","","","","",""
"","null","image-keyboard-response","381","2.0.0","388768","psufftogyyo","heron","stimuli/desert_30.jpg","null","","","","","desert","C","non-repeat","null","335","stimuli/desert_30.jpg","","","","",""
"","null","image-keyboard-response","382","2.0.0","389781","psufftogyyo","heron","stimuli/playground_54.jpg","null","","","","","playground","J","non-repeat","null","336","stimuli/playground_54.jpg","","","","",""
"","527","image-keyboard-response","383","2.0.0","390795","psufftogyyo","heron","stimuli/playground_54.jpg"," ","","","","","playground","J","repeat"," ","336","","","","","",""
"","null","image-keyboard-response","384","2.0.0","391809","psufftogyyo","heron","stimuli/gym_38.jpg","null","","","","","gym","K","non-repeat","null","337","stimuli/gym_38.jpg","","","","",""
"","null","image-keyboard-response","385","2.0.0","392823","psufftogyyo","heron","stimuli/field_25.jpg","null","","","","","field","L","non-repeat","null","338","stimuli/field_25.jpg","","","","",""
"","718","image-keyboard-response","386","2.0.0","393838","psufftogyyo","heron","stimuli/field_25.jpg"," ","","","","","field","L","repeat"," ","338","","","","","",""
"","null","image-keyboard-response","387","2.0.0","394852","psufftogyyo","heron","stimuli/bathroom_46.jpg","null","","","","","bathroom","D","non-repeat","null","339","stimuli/bathroom_46.jpg","","","","",""
"","null","image-keyboard-response","388","2.0.0","395867","psufftogyyo","heron","stimuli/kitchen_23.jpg","null","","","","","kitchen","E","non-repeat","null","340","stimuli/kitchen_23.jpg","","","","",""
"","null","image-keyboard-response","389","2.0.0","396878","psufftogyyo","heron","stimuli/bridge_37.jpg","null","","","","","bridge","F","non-repeat","null","341","stimuli/bridge_37.jpg","","","","",""
"","null","image-keyboard-response","390","2.0.0","397881","psufftogyyo","heron","stimuli/bridge_37.jpg","null","","","","","bridge","F","repeat"," ","341","","","","","",""
"","null","image-keyboard-response","391","2.0.0","398894","psufftogyyo","heron","stimuli/woods_20.jpg","null","","","","","woods","A","non-repeat","null","342","stimuli/woods_20.jpg","","","","",""
"","null","image-keyboard-response","392","2.0.0","399905","psufftogyyo","heron","stimuli/street_13.jpg","null","","","","","street","B","non-repeat","null","343","stimuli/street_13.jpg","","","","",""
"","null","image-keyboard-response","393","2.0.0","400921","psufftogyyo","heron","stimuli/desert_30.jpg","null","","","","","desert","C","non-repeat","null","344","stimuli/desert_30.jpg","","","","",""
"","384","image-keyboard-response","394","2.0.0","401935","psufftogyyo","heron","stimuli/desert_30.jpg"," ","","","","","desert","C","repeat"," ","344","","","","","",""
"","null","image-keyboard-response","395","2.0.0","402949","psufftogyyo","heron","stimuli/playground_54.jpg","null","","","","","playground","J","non-repeat","null","345","stimuli/playground_54.jpg","","","","",""
"","null","image-keyboard-response","396","2.0.0","403961","psufftogyyo","heron","stimuli/gym_38.jpg","null","","","","","gym","K","non-repeat","null","346","stimuli/gym_38.jpg","","","","",""
"","null","image-keyboard-response","397","2.0.0","404975","psufftogyyo","heron","stimuli/field_25.jpg","null","","","","","field","L","non-repeat","null","347","stimuli/field_25.jpg","","","","",""
"","null","image-keyboard-response","398","2.0.0","405989","psufftogyyo","heron","stimuli/bathroom_46.jpg","null","","","","","bathroom","D","non-repeat","null","348","stimuli/bathroom_46.jpg","","","","",""
"","null","image-keyboard-response","399","2.0.0","407005","psufftogyyo","heron","stimuli/kitchen_23.jpg","null","","","","","kitchen","E","non-repeat","null","349","stimuli/kitchen_23.jpg","","","","",""
"","null","image-keyboard-response","400","2.0.0","408020","psufftogyyo","heron","stimuli/bridge_37.jpg","null","","","","","bridge","F","non-repeat","null","350","stimuli/bridge_37.jpg","","","","",""
"","null","image-keyboard-response","401","2.0.0","409033","psufftogyyo","heron","stimuli/playground_54.jpg","null","","","","","playground","J","non-repeat","null","351","stimuli/playground_54.jpg","","","","",""
"","439","image-keyboard-response","402","2.0.0","410049","psufftogyyo","heron","stimuli/playground_54.jpg"," ","","","","","playground","J","repeat"," ","351","","","","","",""
"","null","image-keyboard-response","403","2.0.0","411061","psufftogyyo","heron","stimuli/gym_38.jpg","null","","","","","gym","K","non-repeat","null","352","stimuli/gym_38.jpg","","","","",""
"","null","image-keyboard-response","404","2.0.0","412075","psufftogyyo","heron","stimuli/field_25.jpg","null","","","","","field","L","non-repeat","null","353","stimuli/field_25.jpg","","","","",""
"","null","image-keyboard-response","405","2.0.0","413086","psufftogyyo","heron","stimuli/woods_20.jpg","null","","","","","woods","A","non-repeat","null","354","stimuli/woods_20.jpg","","","","",""
"","653","image-keyboard-response","406","2.0.0","414100","psufftogyyo","heron","stimuli/woods_20.jpg"," ","","","","","woods","A","repeat"," ","354","","","","","",""
"","null","image-keyboard-response","407","2.0.0","415113","psufftogyyo","heron","stimuli/street_13.jpg","null","","","","","street","B","non-repeat","null","355","stimuli/street_13.jpg","","","","",""
"","null","image-keyboard-response","408","2.0.0","416115","psufftogyyo","heron","stimuli/desert_30.jpg","null","","","","","desert","C","non-repeat","null","356","stimuli/desert_30.jpg","","","","",""
"","297","image-keyboard-response","409","2.0.0","417118","psufftogyyo","heron","stimuli/desert_30.jpg"," ","","","","","desert","C","repeat"," ","356","","","","","",""
"","null","image-keyboard-response","410","2.0.0","418126","psufftogyyo","heron","stimuli/playground_54.jpg","null","","","","","playground","J","non-repeat","null","357","stimuli/playground_54.jpg","","","","",""
"","null","image-keyboard-response","411","2.0.0","419139","psufftogyyo","heron","stimuli/gym_38.jpg","null","","","","","gym","K","non-repeat","null","358","stimuli/gym_38.jpg","","","","",""
"","null","image-keyboard-response","412","2.0.0","420152","psufftogyyo","heron","stimuli/field_25.jpg","null","","","","","field","L","non-repeat","null","359","stimuli/field_25.jpg","","","","",""
"","null","image-keyboard-response","413","2.0.0","421167","psufftogyyo","heron","stimuli/coast_26.jpg","null","","","","","coast","G","non-repeat","null","360","stimuli/coast_26.jpg","","","","",""
"","null","image-keyboard-response","414","2.0.0","422181","psufftogyyo","heron","stimuli/bar_63.jpg","null","","","","","bar","H","non-repeat","null","361","stimuli/bar_63.jpg","","","","",""
"","null","image-keyboard-response","415","2.0.0","423191","psufftogyyo","heron","stimuli/stream_68.jpg","null","","","","","stream","I","non-repeat","null","362","stimuli/stream_68.jpg","","","","",""
"","null","image-keyboard-response","416","2.0.0","424194","psufftogyyo","heron","stimuli/woods_20.jpg","null","","","","","woods","A","non-repeat","null","363","stimuli/woods_20.jpg","","","","",""
"","null","image-keyboard-response","417","2.0.0","425207","psufftogyyo","heron","stimuli/street_13.jpg","null","","","","","street","B","non-repeat","null","364","stimuli/street_13.jpg","","","","",""
"","null","image-keyboard-response","418","2.0.0","426222","psufftogyyo","heron","stimuli/desert_30.jpg","null","","","","","desert","C","non-repeat","null","365","stimuli/desert_30.jpg","","","","",""
"","null","image-keyboard-response","419","2.0.0","427235","psufftogyyo","heron","stimuli/playground_54.jpg","null","","","","","playground","J","non-repeat","null","366","stimuli/playground_54.jpg","","","","",""
"","null","image-keyboard-response","420","2.0.0","428247","psufftogyyo","heron","stimuli/gym_38.jpg","null","","","","","gym","K","non-repeat","null","367","stimuli/gym_38.jpg","","","","",""
"","null","image-keyboard-response","421","2.0.0","429261","psufftogyyo","heron","stimuli/field_25.jpg","null","","","","","field","L","non-repeat","null","368","stimuli/field_25.jpg","","","","",""
"","null","image-keyboard-response","422","2.0.0","430275","psufftogyyo","heron","stimuli/woods_20.jpg","null","","","","","woods","A","non-repeat","null","369","stimuli/woods_20.jpg","","","","",""
"","null","image-keyboard-response","423","2.0.0","431290","psufftogyyo","heron","stimuli/street_13.jpg","null","","","","","street","B","non-repeat","null","370","stimuli/street_13.jpg","","","","",""
"","null","image-keyboard-response","424","2.0.0","432302","psufftogyyo","heron","stimuli/desert_30.jpg","null","","","","","desert","C","non-repeat","null","371","stimuli/desert_30.jpg","","","","",""
"","385","image-keyboard-response","425","2.0.0","433314","psufftogyyo","heron","stimuli/desert_30.jpg"," ","","","","","desert","C","repeat"," ","371","","","","","",""
"","null","image-keyboard-response","426","2.0.0","434325","psufftogyyo","heron","stimuli/bathroom_46.jpg","null","","","","","bathroom","D","non-repeat","null","372","stimuli/bathroom_46.jpg","","","","",""
"","null","image-keyboard-response","427","2.0.0","435327","psufftogyyo","heron","stimuli/kitchen_23.jpg","null","","","","","kitchen","E","non-repeat","null","373","stimuli/kitchen_23.jpg","","","","",""
"","null","image-keyboard-response","428","2.0.0","436338","psufftogyyo","heron","stimuli/bridge_37.jpg","null","","","","","bridge","F","non-repeat","null","374","stimuli/bridge_37.jpg","","","","",""
"","null","image-keyboard-response","429","2.0.0","437348","psufftogyyo","heron","stimuli/bridge_37.jpg","null","","","","","bridge","F","repeat"," ","374","","","","","",""
"","null","image-keyboard-response","430","2.0.0","438363","psufftogyyo","heron","stimuli/playground_54.jpg","null","","","","","playground","J","non-repeat","null","375","stimuli/playground_54.jpg","","","","",""
"","null","image-keyboard-response","431","2.0.0","439379","psufftogyyo","heron","stimuli/gym_38.jpg","null","","","","","gym","K","non-repeat","null","376","stimuli/gym_38.jpg","","","","",""
"","null","image-keyboard-response","432","2.0.0","440390","psufftogyyo","heron","stimuli/field_25.jpg","null","","","","","field","L","non-repeat","null","377","stimuli/field_25.jpg","","","","",""
"","null","image-keyboard-response","433","2.0.0","441393","psufftogyyo","heron","stimuli/coast_26.jpg","null","","","","","coast","G","non-repeat","null","378","stimuli/coast_26.jpg","","","","",""
"","null","image-keyboard-response","434","2.0.0","442406","psufftogyyo","heron","stimuli/bar_63.jpg","null","","","","","bar","H","non-repeat","null","379","stimuli/bar_63.jpg","","","","",""
"","null","image-keyboard-response","435","2.0.0","443420","psufftogyyo","heron","stimuli/stream_68.jpg","null","","","","","stream","I","non-repeat","null","380","stimuli/stream_68.jpg","","","","",""
"","null","image-keyboard-response","436","2.0.0","444422","psufftogyyo","heron","stimuli/bathroom_46.jpg","null","","","","","bathroom","D","non-repeat","null","381","stimuli/bathroom_46.jpg","","","","",""
"","null","image-keyboard-response","437","2.0.0","445436","psufftogyyo","heron","stimuli/kitchen_23.jpg","null","","","","","kitchen","E","non-repeat","null","382","stimuli/kitchen_23.jpg","","","","",""
"","null","image-keyboard-response","438","2.0.0","446451","psufftogyyo","heron","stimuli/bridge_37.jpg","null","","","","","bridge","F","non-repeat","null","383","stimuli/bridge_37.jpg","","","","",""
"","null","image-keyboard-response","439","2.0.0","447454","psufftogyyo","heron","stimuli/playground_54.jpg","null","","","","","playground","J","non-repeat","null","384","stimuli/playground_54.jpg","","","","",""
"","867","image-keyboard-response","440","2.0.0","448464","psufftogyyo","heron","stimuli/playground_54.jpg"," ","","","","","playground","J","repeat"," ","384","","","","","",""
"","null","image-keyboard-response","441","2.0.0","449472","psufftogyyo","heron","stimuli/gym_38.jpg","null","","","","","gym","K","non-repeat","null","385","stimuli/gym_38.jpg","","","","",""
"","null","image-keyboard-response","442","2.0.0","450485","psufftogyyo","heron","stimuli/field_25.jpg","null","","","","","field","L","non-repeat","null","386","stimuli/field_25.jpg","","","","",""
"","null","image-keyboard-response","443","2.0.0","451500","psufftogyyo","heron","stimuli/coast_26.jpg","null","","","","","coast","G","non-repeat","null","387","stimuli/coast_26.jpg","","","","",""
"","null","image-keyboard-response","444","2.0.0","452501","psufftogyyo","heron","stimuli/bar_63.jpg","null","","","","","bar","H","non-repeat","null","388","stimuli/bar_63.jpg","","","","",""
"","null","image-keyboard-response","445","2.0.0","453513","psufftogyyo","heron","stimuli/stream_68.jpg","null","","","","","stream","I","non-repeat","null","389","stimuli/stream_68.jpg","","","","",""
"","null","image-keyboard-response","446","2.0.0","454520","psufftogyyo","heron","stimuli/playground_54.jpg","null","","","","","playground","J","non-repeat","null","390","stimuli/playground_54.jpg","","","","",""
"","null","image-keyboard-response","447","2.0.0","455525","psufftogyyo","heron","stimuli/gym_38.jpg","null","","","","","gym","K","non-repeat","null","391","stimuli/gym_38.jpg","","","","",""
"","null","image-keyboard-response","448","2.0.0","456527","psufftogyyo","heron","stimuli/field_25.jpg","null","","","","","field","L","non-repeat","null","392","stimuli/field_25.jpg","","","","",""
"","null","image-keyboard-response","449","2.0.0","457541","psufftogyyo","heron","stimuli/coast_26.jpg","null","","","","","coast","G","non-repeat","null","393","stimuli/coast_26.jpg","","","","",""
"","630","image-keyboard-response","450","2.0.0","458552","psufftogyyo","heron","stimuli/coast_26.jpg"," ","","","","","coast","G","repeat"," ","393","","","","","",""
"","null","image-keyboard-response","451","2.0.0","459567","psufftogyyo","heron","stimuli/bar_63.jpg","null","","","","","bar","H","non-repeat","null","394","stimuli/bar_63.jpg","","","","",""
"","null","image-keyboard-response","452","2.0.0","460578","psufftogyyo","heron","stimuli/stream_68.jpg","null","","","","","stream","I","non-repeat","null","395","stimuli/stream_68.jpg","","","","",""
"","null","image-keyboard-response","453","2.0.0","461590","psufftogyyo","heron","stimuli/playground_54.jpg","null","","","","","playground","J","non-repeat","null","396","stimuli/playground_54.jpg","","","","",""
"","null","image-keyboard-response","454","2.0.0","462601","psufftogyyo","heron","stimuli/gym_38.jpg","null","","","","","gym","K","non-repeat","null","397","stimuli/gym_38.jpg","","","","",""
"","null","image-keyboard-response","455","2.0.0","463613","psufftogyyo","heron","stimuli/field_25.jpg","null","","","","","field","L","non-repeat","null","398","stimuli/field_25.jpg","","","","",""
"","null","image-keyboard-response","456","2.0.0","464628","psufftogyyo","heron","stimuli/bathroom_46.jpg","null","","","","","bathroom","D","non-repeat","null","399","stimuli/bathroom_46.jpg","","","","",""
"","null","image-keyboard-response","457","2.0.0","465642","psufftogyyo","heron","stimuli/kitchen_23.jpg","null","","","","","kitchen","E","non-repeat","null","400","stimuli/kitchen_23.jpg","","","","",""
"","null","image-keyboard-response","458","2.0.0","466644","psufftogyyo","heron","stimuli/bridge_37.jpg","null","","","","","bridge","F","non-repeat","null","401","stimuli/bridge_37.jpg","","","","",""
"","null","image-keyboard-response","459","2.0.0","467656","psufftogyyo","heron","stimuli/coast_26.jpg","null","","","","","coast","G","non-repeat","null","402","stimuli/coast_26.jpg","","","","",""
"","null","image-keyboard-response","460","2.0.0","468670","psufftogyyo","heron","stimuli/bar_63.jpg","null","","","","","bar","H","non-repeat","null","403","stimuli/bar_63.jpg","","","","",""
"","null","image-keyboard-response","461","2.0.0","469685","psufftogyyo","heron","stimuli/stream_68.jpg","null","","","","","stream","I","non-repeat","null","404","stimuli/stream_68.jpg","","","","",""
"","null","image-keyboard-response","462","2.0.0","470700","psufftogyyo","heron","stimuli/bathroom_46.jpg","null","","","","","bathroom","D","non-repeat","null","405","stimuli/bathroom_46.jpg","","","","",""
"","null","image-keyboard-response","463","2.0.0","471713","psufftogyyo","heron","stimuli/kitchen_23.jpg","null","","","","","kitchen","E","non-repeat","null","406","stimuli/kitchen_23.jpg","","","","",""
"","null","image-keyboard-response","464","2.0.0","472727","psufftogyyo","heron","stimuli/bridge_37.jpg","null","","","","","bridge","F","non-repeat","null","407","stimuli/bridge_37.jpg","","","","",""
"","null","image-keyboard-response","465","2.0.0","473741","psufftogyyo","heron","stimuli/coast_26.jpg","null","","","","","coast","G","non-repeat","null","408","stimuli/coast_26.jpg","","","","",""
"","340","image-keyboard-response","466","2.0.0","474757","psufftogyyo","heron","stimuli/coast_26.jpg"," ","","","","","coast","G","repeat"," ","408","","","","","",""
"","null","image-keyboard-response","467","2.0.0","475771","psufftogyyo","heron","stimuli/bar_63.jpg","null","","","","","bar","H","non-repeat","null","409","stimuli/bar_63.jpg","","","","",""
"","null","image-keyboard-response","468","2.0.0","476773","psufftogyyo","heron","stimuli/stream_68.jpg","null","","","","","stream","I","non-repeat","null","410","stimuli/stream_68.jpg","","","","",""
"","null","image-keyboard-response","469","2.0.0","477784","psufftogyyo","heron","stimuli/bathroom_46.jpg","null","","","","","bathroom","D","non-repeat","null","411","stimuli/bathroom_46.jpg","","","","",""
"","null","image-keyboard-response","470","2.0.0","478788","psufftogyyo","heron","stimuli/kitchen_23.jpg","null","","","","","kitchen","E","non-repeat","null","412","stimuli/kitchen_23.jpg","","","","",""
"","null","image-keyboard-response","471","2.0.0","479802","psufftogyyo","heron","stimuli/bridge_37.jpg","null","","","","","bridge","F","non-repeat","null","413","stimuli/bridge_37.jpg","","","","",""
"","null","image-keyboard-response","472","2.0.0","480817","psufftogyyo","heron","stimuli/woods_20.jpg","null","","","","","woods","A","non-repeat","null","414","stimuli/woods_20.jpg","","","","",""
"","null","image-keyboard-response","473","2.0.0","481828","psufftogyyo","heron","stimuli/street_13.jpg","null","","","","","street","B","non-repeat","null","415","stimuli/street_13.jpg","","","","",""
"","null","image-keyboard-response","474","2.0.0","482831","psufftogyyo","heron","stimuli/desert_30.jpg","null","","","","","desert","C","non-repeat","null","416","stimuli/desert_30.jpg","","","","",""
"","null","image-keyboard-response","475","2.0.0","483835","psufftogyyo","heron","stimuli/coast_26.jpg","null","","","","","coast","G","non-repeat","null","417","stimuli/coast_26.jpg","","","","",""
"","null","image-keyboard-response","476","2.0.0","484851","psufftogyyo","heron","stimuli/coast_26.jpg","null","","","","","coast","G","repeat"," ","417","","","","","",""
"","null","image-keyboard-response","477","2.0.0","485863","psufftogyyo","heron","stimuli/bar_63.jpg","null","","","","","bar","H","non-repeat","null","418","stimuli/bar_63.jpg","","","","",""
"","null","image-keyboard-response","478","2.0.0","486878","psufftogyyo","heron","stimuli/stream_68.jpg","null","","","","","stream","I","non-repeat","null","419","stimuli/stream_68.jpg","","","","",""
"","null","image-keyboard-response","479","2.0.0","487893","psufftogyyo","heron","stimuli/woods_20.jpg","null","","","","","woods","A","non-repeat","null","420","stimuli/woods_20.jpg","","","","",""
"","null","image-keyboard-response","480","2.0.0","488896","psufftogyyo","heron","stimuli/street_13.jpg","null","","","","","street","B","non-repeat","null","421","stimuli/street_13.jpg","","","","",""
"","null","image-keyboard-response","481","2.0.0","489909","psufftogyyo","heron","stimuli/desert_30.jpg","null","","","","","desert","C","non-repeat","null","422","stimuli/desert_30.jpg","","","","",""
"","null","image-keyboard-response","482","2.0.0","490924","psufftogyyo","heron","stimuli/playground_54.jpg","null","","","","","playground","J","non-repeat","null","423","stimuli/playground_54.jpg","","","","",""
"","null","image-keyboard-response","483","2.0.0","491940","psufftogyyo","heron","stimuli/gym_38.jpg","null","","","","","gym","K","non-repeat","null","424","stimuli/gym_38.jpg","","","","",""
"","null","image-keyboard-response","484","2.0.0","492955","psufftogyyo","heron","stimuli/field_25.jpg","null","","","","","field","L","non-repeat","null","425","stimuli/field_25.jpg","","","","",""
"","null","image-keyboard-response","485","2.0.0","493965","psufftogyyo","heron","stimuli/bathroom_46.jpg","null","","","","","bathroom","D","non-repeat","null","426","stimuli/bathroom_46.jpg","","","","",""
"","null","image-keyboard-response","486","2.0.0","494979","psufftogyyo","heron","stimuli/kitchen_23.jpg","null","","","","","kitchen","E","non-repeat","null","427","stimuli/kitchen_23.jpg","","","","",""
"","null","image-keyboard-response","487","2.0.0","495991","psufftogyyo","heron","stimuli/bridge_37.jpg","null","","","","","bridge","F","non-repeat","null","428","stimuli/bridge_37.jpg","","","","",""
"","10822","html-keyboard-response","488","2.0.0","506813","psufftogyyo","heron","
    <p>For this trial, you will see a sequneces of images.</p>
    <p>Press 1 or 2 if the first or second sequence felt familiar..</p>
    <p>Press any key to begin.</p>"," ","","","","","","","","","","","","","","",""
"","null","html-keyboard-response","489","2.0.0","507817","psufftogyyo","heron","<p>Sequence 1</p>","null","","","","","","","","","","","","","","",""
"","null","image-keyboard-response","490","2.0.0","508831","psufftogyyo","heron","stimuli/woods_20.jpg","null","","","","","","","","","","","","","","",""
"","null","image-keyboard-response","491","2.0.0","509846","psufftogyyo","heron","stimuli/kitchen_23.jpg","null","","","","","","","","","","","","","","",""
"","null","image-keyboard-response","492","2.0.0","510859","psufftogyyo","heron","stimuli/stream_68.jpg","null","","","","","","","","","","","","","","",""
"","null","html-keyboard-response","493","2.0.0","511873","psufftogyyo","heron","<p></p>","null","","","","","","","","","","","","","","",""
"","null","html-keyboard-response","494","2.0.0","512884","psufftogyyo","heron","<p>Sequence 2</p>","null","","","","","","","","","","","","","","",""
"","null","image-keyboard-response","495","2.0.0","513900","psufftogyyo","heron","stimuli/woods_20.jpg","null","","","","","","","","","","","","","","",""
"","null","image-keyboard-response","496","2.0.0","514911","psufftogyyo","heron","stimuli/street_13.jpg","null","","","","","","","","","","","","","","",""
"","null","image-keyboard-response","497","2.0.0","515925","psufftogyyo","heron","stimuli/desert_30.jpg","null","","","","","","","","","","","","","","",""
"","1844","html-keyboard-response","498","2.0.0","517769","psufftogyyo","heron","<p>Press '1' if the first sequence was familiar, '2' if the second was.</p>","1","","","","","","","2","","","","[""A"",""B"",""C""]","[""A"",""E"",""I""]","false","[""<p>Sequence 1</p>"",""stimuli/woods_20.jpg"",""stimuli/kitchen_23.jpg"",""stimuli/stream_68.jpg""]","[""<p>Sequence 2</p>"",""stimuli/woods_20.jpg"",""stimuli/street_13.jpg"",""stimuli/desert_30.jpg""]"
"","null","html-keyboard-response","499","2.0.0","518773","psufftogyyo","heron","<p>Sequence 1</p>","null","","","","","","","","","","","","","","",""
"","null","image-keyboard-response","500","2.0.0","519775","psufftogyyo","heron","stimuli/woods_20.jpg","null","","","","","","","","","","","","","","",""
"","null","image-keyboard-response","501","2.0.0","520789","psufftogyyo","heron","stimuli/street_13.jpg","null","","","","","","","","","","","","","","",""
"","null","image-keyboard-response","502","2.0.0","521802","psufftogyyo","heron","stimuli/desert_30.jpg","null","","","","","","","","","","","","","","",""
"","null","html-keyboard-response","503","2.0.0","522818","psufftogyyo","heron","<p></p>","null","","","","","","","","","","","","","","",""
