"success","timeout","failed_images","failed_audio","failed_video","trial_type","trial_index","plugin_version","time_elapsed","random_id","participant","rt","stimulus","response","category","letter","correct_response","correct_response_key","trial_counter","current_image","test_triplet","foil_triplet","correct","firstSequencePaths","secondSequencePaths"
"true","false","[]","[]","[]","preload","0","2.0.0","352","pt68as8ppoc","turtle","","","","","","","","","","","","","",""
"true","","","","","fullscreen","1","null","15402","pt68as8ppoc","turtle","14045","","","","","","","","","","","","",""
"","","","","","html-keyboard-response","2","2.0.0","16309","pt68as8ppoc","turtle","903","Welcome to the experiment. Press any key to begin."," ","","","","","","","","","","",""
"","","","","","survey-text","3","2.0.0","19173","pt68as8ppoc","turtle","2860","","{""participant_id"":""turtle""}","","","","","","","","","","",""
"","","","","","html-keyboard-response","4","2.0.0","30827","pt68as8ppoc","turtle","11652","
  <p>For this trial, you will see a series of images.</p>
  <p><b>Press the spacebar whenever you see the same image appear twice in a row.</b></p>
  <p>In other words, whenever the same image repeats back to back, press the spacebar.</p>
  <p>Press any key to begin.</p>"," ","","","","","","","","","","",""
"","","","","","image-keyboard-response","5","2.0.0","31833","pt68as8ppoc","turtle","null","stimuli/bar_7.jpg","null","bar","J","non-repeat","null","0","stimuli/bar_7.jpg","","","","",""
"","","","","","image-keyboard-response","6","2.0.0","32838","pt68as8ppoc","turtle","null","stimuli/desert_21.jpg","null","desert","K","non-repeat","null","1","stimuli/desert_21.jpg","","","","",""
"","","","","","image-keyboard-response","7","2.0.0","33843","pt68as8ppoc","turtle","null","stimuli/bridge_1.jpg","null","bridge","L","non-repeat","null","2","stimuli/bridge_1.jpg","","","","",""
"","","","","","image-keyboard-response","8","2.0.0","34847","pt68as8ppoc","turtle","null","stimuli/field_16.jpg","null","field","D","non-repeat","null","3","stimuli/field_16.jpg","","","","",""
"","","","","","image-keyboard-response","9","2.0.0","35851","pt68as8ppoc","turtle","null","stimuli/street_27.jpg","null","street","E","non-repeat","null","4","stimuli/street_27.jpg","","","","",""
"","","","","","image-keyboard-response","10","2.0.0","36855","pt68as8ppoc","turtle","null","stimuli/coast_66.jpg","null","coast","F","non-repeat","null","5","stimuli/coast_66.jpg","","","","",""
"","","","","","image-keyboard-response","11","2.0.0","37860","pt68as8ppoc","turtle","573","stimuli/coast_66.jpg"," ","coast","F","repeat"," ","5","","","","","",""
"","","","","","image-keyboard-response","12","2.0.0","38864","pt68as8ppoc","turtle","null","stimuli/stream_16.jpg","null","stream","A","non-repeat","null","6","stimuli/stream_16.jpg","","","","",""
"","","","","","image-keyboard-response","13","2.0.0","39867","pt68as8ppoc","turtle","null","stimuli/kitchen_12.jpg","null","kitchen","B","non-repeat","null","7","stimuli/kitchen_12.jpg","","","","",""
"","","","","","image-keyboard-response","14","2.0.0","40871","pt68as8ppoc","turtle","null","stimuli/bathroom_30.jpg","null","bathroom","C","non-repeat","null","8","stimuli/bathroom_30.jpg","","","","",""
"","","","","","image-keyboard-response","15","2.0.0","41875","pt68as8ppoc","turtle","null","stimuli/field_16.jpg","null","field","D","non-repeat","null","9","stimuli/field_16.jpg","","","","",""
"","","","","","image-keyboard-response","16","2.0.0","42879","pt68as8ppoc","turtle","null","stimuli/street_27.jpg","null","street","E","non-repeat","null","10","stimuli/street_27.jpg","","","","",""
"","","","","","image-keyboard-response","17","2.0.0","43882","pt68as8ppoc","turtle","null","stimuli/coast_66.jpg","null","coast","F","non-repeat","null","11","stimuli/coast_66.jpg","","","","",""
"","","","","","image-keyboard-response","18","2.0.0","44886","pt68as8ppoc","turtle","null","stimuli/woods_45.jpg","null","woods","G","non-repeat","null","12","stimuli/woods_45.jpg","","","","",""
"","","","","","image-keyboard-response","19","2.0.0","45890","pt68as8ppoc","turtle","null","stimuli/playground_50.jpg","null","playground","H","non-repeat","null","13","stimuli/playground_50.jpg","","","","",""
"","","","","","image-keyboard-response","20","2.0.0","46894","pt68as8ppoc","turtle","null","stimuli/gym_9.jpg","null","gym","I","non-repeat","null","14","stimuli/gym_9.jpg","","","","",""
"","","","","","image-keyboard-response","21","2.0.0","47898","pt68as8ppoc","turtle","null","stimuli/field_16.jpg","null","field","D","non-repeat","null","15","stimuli/field_16.jpg","","","","",""
"","","","","","image-keyboard-response","22","2.0.0","48901","pt68as8ppoc","turtle","null","stimuli/street_27.jpg","null","street","E","non-repeat","null","16","stimuli/street_27.jpg","","","","",""
"","","","","","image-keyboard-response","23","2.0.0","49906","pt68as8ppoc","turtle","null","stimuli/coast_66.jpg","null","coast","F","non-repeat","null","17","stimuli/coast_66.jpg","","","","",""
"","","","","","image-keyboard-response","24","2.0.0","50911","pt68as8ppoc","turtle","null","stimuli/woods_45.jpg","null","woods","G","non-repeat","null","18","stimuli/woods_45.jpg","","","","",""
"","","","","","image-keyboard-response","25","2.0.0","51915","pt68as8ppoc","turtle","null","stimuli/playground_50.jpg","null","playground","H","non-repeat","null","19","stimuli/playground_50.jpg","","","","",""
"","","","","","image-keyboard-response","26","2.0.0","52919","pt68as8ppoc","turtle","null","stimuli/gym_9.jpg","null","gym","I","non-repeat","null","20","stimuli/gym_9.jpg","","","","",""
"","","","","","image-keyboard-response","27","2.0.0","53923","pt68as8ppoc","turtle","388","stimuli/bar_7.jpg"," ","bar","J","non-repeat","null","21","stimuli/bar_7.jpg","","","","",""
"","","","","","image-keyboard-response","28","2.0.0","54927","pt68as8ppoc","turtle","null","stimuli/desert_21.jpg","null","desert","K","non-repeat","null","22","stimuli/desert_21.jpg","","","","",""
"","","","","","image-keyboard-response","29","2.0.0","55931","pt68as8ppoc","turtle","null","stimuli/bridge_1.jpg","null","bridge","L","non-repeat","null","23","stimuli/bridge_1.jpg","","","","",""
"","","","","","image-keyboard-response","30","2.0.0","56936","pt68as8ppoc","turtle","null","stimuli/stream_16.jpg","null","stream","A","non-repeat","null","24","stimuli/stream_16.jpg","","","","",""
"","","","","","image-keyboard-response","31","2.0.0","57940","pt68as8ppoc","turtle","null","stimuli/kitchen_12.jpg","null","kitchen","B","non-repeat","null","25","stimuli/kitchen_12.jpg","","","","",""
"","","","","","image-keyboard-response","32","2.0.0","58944","pt68as8ppoc","turtle","null","stimuli/bathroom_30.jpg","null","bathroom","C","non-repeat","null","26","stimuli/bathroom_30.jpg","","","","",""
"","","","","","image-keyboard-response","33","2.0.0","59948","pt68as8ppoc","turtle","407","stimuli/bathroom_30.jpg"," ","bathroom","C","repeat"," ","26","","","","","",""
"","","","","","image-keyboard-response","34","2.0.0","60953","pt68as8ppoc","turtle","null","stimuli/field_16.jpg","null","field","D","non-repeat","null","27","stimuli/field_16.jpg","","","","",""
"","","","","","image-keyboard-response","35","2.0.0","61961","pt68as8ppoc","turtle","null","stimuli/street_27.jpg","null","street","E","non-repeat","null","28","stimuli/street_27.jpg","","","","",""
"","","","","","image-keyboard-response","36","2.0.0","62965","pt68as8ppoc","turtle","null","stimuli/coast_66.jpg","null","coast","F","non-repeat","null","29","stimuli/coast_66.jpg","","","","",""
"","","","","","image-keyboard-response","37","2.0.0","63969","pt68as8ppoc","turtle","null","stimuli/bar_7.jpg","null","bar","J","non-repeat","null","30","stimuli/bar_7.jpg","","","","",""
"","","","","","image-keyboard-response","38","2.0.0","64974","pt68as8ppoc","turtle","null","stimuli/desert_21.jpg","null","desert","K","non-repeat","null","31","stimuli/desert_21.jpg","","","","",""
"","","","","","image-keyboard-response","39","2.0.0","65978","pt68as8ppoc","turtle","null","stimuli/bridge_1.jpg","null","bridge","L","non-repeat","null","32","stimuli/bridge_1.jpg","","","","",""
"","","","","","image-keyboard-response","40","2.0.0","66982","pt68as8ppoc","turtle","374","stimuli/bridge_1.jpg"," ","bridge","L","repeat"," ","32","","","","","",""
"","","","","","image-keyboard-response","41","2.0.0","67986","pt68as8ppoc","turtle","null","stimuli/stream_16.jpg","null","stream","A","non-repeat","null","33","stimuli/stream_16.jpg","","","","",""
"","","","","","image-keyboard-response","42","2.0.0","68990","pt68as8ppoc","turtle","null","stimuli/kitchen_12.jpg","null","kitchen","B","non-repeat","null","34","stimuli/kitchen_12.jpg","","","","",""
"","","","","","image-keyboard-response","43","2.0.0","69994","pt68as8ppoc","turtle","null","stimuli/bathroom_30.jpg","null","bathroom","C","non-repeat","null","35","stimuli/bathroom_30.jpg","","","","",""
"","","","","","image-keyboard-response","44","2.0.0","70998","pt68as8ppoc","turtle","null","stimuli/bar_7.jpg","null","bar","J","non-repeat","null","36","stimuli/bar_7.jpg","","","","",""
"","","","","","image-keyboard-response","45","2.0.0","72001","pt68as8ppoc","turtle","null","stimuli/desert_21.jpg","null","desert","K","non-repeat","null","37","stimuli/desert_21.jpg","","","","",""
"","","","","","image-keyboard-response","46","2.0.0","73006","pt68as8ppoc","turtle","null","stimuli/bridge_1.jpg","null","bridge","L","non-repeat","null","38","stimuli/bridge_1.jpg","","","","",""
"","","","","","image-keyboard-response","47","2.0.0","74010","pt68as8ppoc","turtle","null","stimuli/woods_45.jpg","null","woods","G","non-repeat","null","39","stimuli/woods_45.jpg","","","","",""
"","","","","","image-keyboard-response","48","2.0.0","75014","pt68as8ppoc","turtle","null","stimuli/playground_50.jpg","null","playground","H","non-repeat","null","40","stimuli/playground_50.jpg","","","","",""
"","","","","","image-keyboard-response","49","2.0.0","76018","pt68as8ppoc","turtle","null","stimuli/gym_9.jpg","null","gym","I","non-repeat","null","41","stimuli/gym_9.jpg","","","","",""
"","","","","","image-keyboard-response","50","2.0.0","77023","pt68as8ppoc","turtle","308","stimuli/bar_7.jpg"," ","bar","J","non-repeat","null","42","stimuli/bar_7.jpg","","","","",""
"","","","","","image-keyboard-response","51","2.0.0","78027","pt68as8ppoc","turtle","null","stimuli/desert_21.jpg","null","desert","K","non-repeat","null","43","stimuli/desert_21.jpg","","","","",""
"","","","","","image-keyboard-response","52","2.0.0","79031","pt68as8ppoc","turtle","null","stimuli/bridge_1.jpg","null","bridge","L","non-repeat","null","44","stimuli/bridge_1.jpg","","","","",""
"","","","","","image-keyboard-response","53","2.0.0","80035","pt68as8ppoc","turtle","614","stimuli/bridge_1.jpg"," ","bridge","L","repeat"," ","44","","","","","",""
"","","","","","image-keyboard-response","54","2.0.0","81039","pt68as8ppoc","turtle","null","stimuli/woods_45.jpg","null","woods","G","non-repeat","null","45","stimuli/woods_45.jpg","","","","",""
"","","","","","image-keyboard-response","55","2.0.0","82044","pt68as8ppoc","turtle","null","stimuli/playground_50.jpg","null","playground","H","non-repeat","null","46","stimuli/playground_50.jpg","","","","",""
"","","","","","image-keyboard-response","56","2.0.0","83047","pt68as8ppoc","turtle","null","stimuli/gym_9.jpg","null","gym","I","non-repeat","null","47","stimuli/gym_9.jpg","","","","",""
"","","","","","image-keyboard-response","57","2.0.0","84051","pt68as8ppoc","turtle","null","stimuli/stream_16.jpg","null","stream","A","non-repeat","null","48","stimuli/stream_16.jpg","","","","",""
"","","","","","image-keyboard-response","58","2.0.0","85056","pt68as8ppoc","turtle","null","stimuli/kitchen_12.jpg","null","kitchen","B","non-repeat","null","49","stimuli/kitchen_12.jpg","","","","",""
"","","","","","image-keyboard-response","59","2.0.0","86059","pt68as8ppoc","turtle","null","stimuli/bathroom_30.jpg","null","bathroom","C","non-repeat","null","50","stimuli/bathroom_30.jpg","","","","",""
"","","","","","image-keyboard-response","60","2.0.0","87064","pt68as8ppoc","turtle","null","stimuli/field_16.jpg","null","field","D","non-repeat","null","51","stimuli/field_16.jpg","","","","",""
"","","","","","image-keyboard-response","61","2.0.0","88067","pt68as8ppoc","turtle","null","stimuli/street_27.jpg","null","street","E","non-repeat","null","52","stimuli/street_27.jpg","","","","",""
"","","","","","image-keyboard-response","62","2.0.0","89075","pt68as8ppoc","turtle","null","stimuli/coast_66.jpg","null","coast","F","non-repeat","null","53","stimuli/coast_66.jpg","","","","",""
"","","","","","image-keyboard-response","63","2.0.0","90079","pt68as8ppoc","turtle","null","stimuli/stream_16.jpg","null","stream","A","non-repeat","null","54","stimuli/stream_16.jpg","","","","",""
"","","","","","image-keyboard-response","64","2.0.0","91084","pt68as8ppoc","turtle","null","stimuli/kitchen_12.jpg","null","kitchen","B","non-repeat","null","55","stimuli/kitchen_12.jpg","","","","",""
"","","","","","image-keyboard-response","65","2.0.0","92087","pt68as8ppoc","turtle","null","stimuli/bathroom_30.jpg","null","bathroom","C","non-repeat","null","56","stimuli/bathroom_30.jpg","","","","",""
"","","","","","image-keyboard-response","66","2.0.0","93090","pt68as8ppoc","turtle","null","stimuli/field_16.jpg","null","field","D","non-repeat","null","57","stimuli/field_16.jpg","","","","",""
"","","","","","image-keyboard-response","67","2.0.0","94093","pt68as8ppoc","turtle","null","stimuli/street_27.jpg","null","street","E","non-repeat","null","58","stimuli/street_27.jpg","","","","",""
"","","","","","image-keyboard-response","68","2.0.0","95097","pt68as8ppoc","turtle","null","stimuli/coast_66.jpg","null","coast","F","non-repeat","null","59","stimuli/coast_66.jpg","","","","",""
"","","","","","image-keyboard-response","69","2.0.0","96101","pt68as8ppoc","turtle","null","stimuli/woods_45.jpg","null","woods","G","non-repeat","null","60","stimuli/woods_45.jpg","","","","",""
"","","","","","image-keyboard-response","70","2.0.0","97105","pt68as8ppoc","turtle","null","stimuli/playground_50.jpg","null","playground","H","non-repeat","null","61","stimuli/playground_50.jpg","","","","",""
"","","","","","image-keyboard-response","71","2.0.0","98108","pt68as8ppoc","turtle","null","stimuli/gym_9.jpg","null","gym","I","non-repeat","null","62","stimuli/gym_9.jpg","","","","",""
"","","","","","image-keyboard-response","72","2.0.0","99112","pt68as8ppoc","turtle","null","stimuli/field_16.jpg","null","field","D","non-repeat","null","63","stimuli/field_16.jpg","","","","",""
"","","","","","image-keyboard-response","73","2.0.0","100116","pt68as8ppoc","turtle","null","stimuli/street_27.jpg","null","street","E","non-repeat","null","64","stimuli/street_27.jpg","","","","",""
"","","","","","image-keyboard-response","74","2.0.0","101121","pt68as8ppoc","turtle","null","stimuli/coast_66.jpg","null","coast","F","non-repeat","null","65","stimuli/coast_66.jpg","","","","",""
"","","","","","image-keyboard-response","75","2.0.0","102125","pt68as8ppoc","turtle","null","stimuli/stream_16.jpg","null","stream","A","non-repeat","null","66","stimuli/stream_16.jpg","","","","",""
"","","","","","image-keyboard-response","76","2.0.0","103129","pt68as8ppoc","turtle","null","stimuli/kitchen_12.jpg","null","kitchen","B","non-repeat","null","67","stimuli/kitchen_12.jpg","","","","",""
"","","","","","image-keyboard-response","77","2.0.0","104133","pt68as8ppoc","turtle","null","stimuli/bathroom_30.jpg","null","bathroom","C","non-repeat","null","68","stimuli/bathroom_30.jpg","","","","",""
"","","","","","image-keyboard-response","78","2.0.0","105137","pt68as8ppoc","turtle","null","stimuli/woods_45.jpg","null","woods","G","non-repeat","null","69","stimuli/woods_45.jpg","","","","",""
"","","","","","image-keyboard-response","79","2.0.0","106141","pt68as8ppoc","turtle","null","stimuli/playground_50.jpg","null","playground","H","non-repeat","null","70","stimuli/playground_50.jpg","","","","",""
"","","","","","image-keyboard-response","80","2.0.0","107144","pt68as8ppoc","turtle","null","stimuli/gym_9.jpg","null","gym","I","non-repeat","null","71","stimuli/gym_9.jpg","","","","",""
"","","","","","image-keyboard-response","81","2.0.0","108147","pt68as8ppoc","turtle","null","stimuli/stream_16.jpg","null","stream","A","non-repeat","null","72","stimuli/stream_16.jpg","","","","",""
"","","","","","image-keyboard-response","82","2.0.0","109151","pt68as8ppoc","turtle","null","stimuli/kitchen_12.jpg","null","kitchen","B","non-repeat","null","73","stimuli/kitchen_12.jpg","","","","",""
"","","","","","image-keyboard-response","83","2.0.0","110155","pt68as8ppoc","turtle","null","stimuli/bathroom_30.jpg","null","bathroom","C","non-repeat","null","74","stimuli/bathroom_30.jpg","","","","",""
"","","","","","image-keyboard-response","84","2.0.0","111159","pt68as8ppoc","turtle","null","stimuli/field_16.jpg","null","field","D","non-repeat","null","75","stimuli/field_16.jpg","","","","",""
"","","","","","image-keyboard-response","85","2.0.0","112163","pt68as8ppoc","turtle","null","stimuli/street_27.jpg","null","street","E","non-repeat","null","76","stimuli/street_27.jpg","","","","",""
"","","","","","image-keyboard-response","86","2.0.0","113167","pt68as8ppoc","turtle","null","stimuli/coast_66.jpg","null","coast","F","non-repeat","null","77","stimuli/coast_66.jpg","","","","",""
"","","","","","image-keyboard-response","87","2.0.0","114170","pt68as8ppoc","turtle","null","stimuli/stream_16.jpg","null","stream","A","non-repeat","null","78","stimuli/stream_16.jpg","","","","",""
"","","","","","image-keyboard-response","88","2.0.0","115173","pt68as8ppoc","turtle","null","stimuli/kitchen_12.jpg","null","kitchen","B","non-repeat","null","79","stimuli/kitchen_12.jpg","","","","",""
"","","","","","image-keyboard-response","89","2.0.0","116177","pt68as8ppoc","turtle","null","stimuli/bathroom_30.jpg","null","bathroom","C","non-repeat","null","80","stimuli/bathroom_30.jpg","","","","",""
"","","","","","image-keyboard-response","90","2.0.0","117180","pt68as8ppoc","turtle","623","stimuli/bathroom_30.jpg"," ","bathroom","C","repeat"," ","80","","","","","",""
"","","","","","image-keyboard-response","91","2.0.0","118183","pt68as8ppoc","turtle","null","stimuli/woods_45.jpg","null","woods","G","non-repeat","null","81","stimuli/woods_45.jpg","","","","",""
"","","","","","image-keyboard-response","92","2.0.0","119186","pt68as8ppoc","turtle","583","stimuli/woods_45.jpg"," ","woods","G","repeat"," ","81","","","","","",""
"","","","","","image-keyboard-response","93","2.0.0","120190","pt68as8ppoc","turtle","null","stimuli/playground_50.jpg","null","playground","H","non-repeat","null","82","stimuli/playground_50.jpg","","","","",""
"","","","","","image-keyboard-response","94","2.0.0","121194","pt68as8ppoc","turtle","null","stimuli/gym_9.jpg","null","gym","I","non-repeat","null","83","stimuli/gym_9.jpg","","","","",""
"","","","","","image-keyboard-response","95","2.0.0","122197","pt68as8ppoc","turtle","null","stimuli/gym_9.jpg","null","gym","I","repeat"," ","83","","","","","",""
"","","","","","image-keyboard-response","96","2.0.0","123202","pt68as8ppoc","turtle","null","stimuli/field_16.jpg","null","field","D","non-repeat","null","84","stimuli/field_16.jpg","","","","",""
"","","","","","image-keyboard-response","97","2.0.0","124206","pt68as8ppoc","turtle","null","stimuli/street_27.jpg","null","street","E","non-repeat","null","85","stimuli/street_27.jpg","","","","",""
"","","","","","image-keyboard-response","98","2.0.0","125210","pt68as8ppoc","turtle","null","stimuli/coast_66.jpg","null","coast","F","non-repeat","null","86","stimuli/coast_66.jpg","","","","",""
"","","","","","image-keyboard-response","99","2.0.0","126214","pt68as8ppoc","turtle","null","stimuli/stream_16.jpg","null","stream","A","non-repeat","null","87","stimuli/stream_16.jpg","","","","",""
"","","","","","image-keyboard-response","100","2.0.0","127217","pt68as8ppoc","turtle","null","stimuli/kitchen_12.jpg","null","kitchen","B","non-repeat","null","88","stimuli/kitchen_12.jpg","","","","",""
"","","","","","image-keyboard-response","101","2.0.0","128221","pt68as8ppoc","turtle","null","stimuli/bathroom_30.jpg","null","bathroom","C","non-repeat","null","89","stimuli/bathroom_30.jpg","","","","",""
"","","","","","image-keyboard-response","102","2.0.0","129225","pt68as8ppoc","turtle","409","stimuli/bathroom_30.jpg"," ","bathroom","C","repeat"," ","89","","","","","",""
"","","","","","image-keyboard-response","103","2.0.0","130230","pt68as8ppoc","turtle","null","stimuli/field_16.jpg","null","field","D","non-repeat","null","90","stimuli/field_16.jpg","","","","",""
"","","","","","image-keyboard-response","104","2.0.0","131233","pt68as8ppoc","turtle","null","stimuli/street_27.jpg","null","street","E","non-repeat","null","91","stimuli/street_27.jpg","","","","",""
"","","","","","image-keyboard-response","105","2.0.0","132236","pt68as8ppoc","turtle","null","stimuli/coast_66.jpg","null","coast","F","non-repeat","null","92","stimuli/coast_66.jpg","","","","",""
"","","","","","image-keyboard-response","106","2.0.0","133239","pt68as8ppoc","turtle","520","stimuli/coast_66.jpg"," ","coast","F","repeat"," ","92","","","","","",""
"","","","","","image-keyboard-response","107","2.0.0","134243","pt68as8ppoc","turtle","null","stimuli/woods_45.jpg","null","woods","G","non-repeat","null","93","stimuli/woods_45.jpg","","","","",""
"","","","","","image-keyboard-response","108","2.0.0","135247","pt68as8ppoc","turtle","null","stimuli/playground_50.jpg","null","playground","H","non-repeat","null","94","stimuli/playground_50.jpg","","","","",""
"","","","","","image-keyboard-response","109","2.0.0","136252","pt68as8ppoc","turtle","null","stimuli/gym_9.jpg","null","gym","I","non-repeat","null","95","stimuli/gym_9.jpg","","","","",""
"","","","","","image-keyboard-response","110","2.0.0","137255","pt68as8ppoc","turtle","null","stimuli/bar_7.jpg","null","bar","J","non-repeat","null","96","stimuli/bar_7.jpg","","","","",""
"","","","","","image-keyboard-response","111","2.0.0","138258","pt68as8ppoc","turtle","null","stimuli/desert_21.jpg","null","desert","K","non-repeat","null","97","stimuli/desert_21.jpg","","","","",""
"","","","","","image-keyboard-response","112","2.0.0","139262","pt68as8ppoc","turtle","null","stimuli/bridge_1.jpg","null","bridge","L","non-repeat","null","98","stimuli/bridge_1.jpg","","","","",""
"","","","","","image-keyboard-response","113","2.0.0","140265","pt68as8ppoc","turtle","null","stimuli/woods_45.jpg","null","woods","G","non-repeat","null","99","stimuli/woods_45.jpg","","","","",""
"","","","","","image-keyboard-response","114","2.0.0","141269","pt68as8ppoc","turtle","339","stimuli/woods_45.jpg"," ","woods","G","repeat"," ","99","","","","","",""
"","","","","","image-keyboard-response","115","2.0.0","142273","pt68as8ppoc","turtle","null","stimuli/playground_50.jpg","null","playground","H","non-repeat","null","100","stimuli/playground_50.jpg","","","","",""
"","","","","","image-keyboard-response","116","2.0.0","143277","pt68as8ppoc","turtle","null","stimuli/gym_9.jpg","null","gym","I","non-repeat","null","101","stimuli/gym_9.jpg","","","","",""
"","","","","","image-keyboard-response","117","2.0.0","144281","pt68as8ppoc","turtle","null","stimuli/stream_16.jpg","null","stream","A","non-repeat","null","102","stimuli/stream_16.jpg","","","","",""
"","","","","","image-keyboard-response","118","2.0.0","145285","pt68as8ppoc","turtle","428","stimuli/stream_16.jpg"," ","stream","A","repeat"," ","102","","","","","",""
"","","","","","image-keyboard-response","119","2.0.0","146290","pt68as8ppoc","turtle","null","stimuli/kitchen_12.jpg","null","kitchen","B","non-repeat","null","103","stimuli/kitchen_12.jpg","","","","",""
"","","","","","image-keyboard-response","120","2.0.0","147294","pt68as8ppoc","turtle","null","stimuli/bathroom_30.jpg","null","bathroom","C","non-repeat","null","104","stimuli/bathroom_30.jpg","","","","",""
"","","","","","image-keyboard-response","121","2.0.0","148298","pt68as8ppoc","turtle","null","stimuli/field_16.jpg","null","field","D","non-repeat","null","105","stimuli/field_16.jpg","","","","",""
"","","","","","image-keyboard-response","122","2.0.0","149302","pt68as8ppoc","turtle","null","stimuli/street_27.jpg","null","street","E","non-repeat","null","106","stimuli/street_27.jpg","","","","",""
"","","","","","image-keyboard-response","123","2.0.0","150307","pt68as8ppoc","turtle","null","stimuli/coast_66.jpg","null","coast","F","non-repeat","null","107","stimuli/coast_66.jpg","","","","",""
"","","","","","image-keyboard-response","124","2.0.0","151310","pt68as8ppoc","turtle","null","stimuli/stream_16.jpg","null","stream","A","non-repeat","null","108","stimuli/stream_16.jpg","","","","",""
"","","","","","image-keyboard-response","125","2.0.0","152315","pt68as8ppoc","turtle","null","stimuli/kitchen_12.jpg","null","kitchen","B","non-repeat","null","109","stimuli/kitchen_12.jpg","","","","",""
"","","","","","image-keyboard-response","126","2.0.0","153318","pt68as8ppoc","turtle","null","stimuli/bathroom_30.jpg","null","bathroom","C","non-repeat","null","110","stimuli/bathroom_30.jpg","","","","",""
"","","","","","image-keyboard-response","127","2.0.0","154322","pt68as8ppoc","turtle","581","stimuli/bathroom_30.jpg"," ","bathroom","C","repeat"," ","110","","","","","",""
"","","","","","image-keyboard-response","128","2.0.0","155326","pt68as8ppoc","turtle","null","stimuli/bar_7.jpg","null","bar","J","non-repeat","null","111","stimuli/bar_7.jpg","","","","",""
"","","","","","image-keyboard-response","129","2.0.0","156329","pt68as8ppoc","turtle","null","stimuli/desert_21.jpg","null","desert","K","non-repeat","null","112","stimuli/desert_21.jpg","","","","",""
"","","","","","image-keyboard-response","130","2.0.0","157333","pt68as8ppoc","turtle","null","stimuli/bridge_1.jpg","null","bridge","L","non-repeat","null","113","stimuli/bridge_1.jpg","","","","",""
"","","","","","image-keyboard-response","131","2.0.0","158336","pt68as8ppoc","turtle","null","stimuli/woods_45.jpg","null","woods","G","non-repeat","null","114","stimuli/woods_45.jpg","","","","",""
"","","","","","image-keyboard-response","132","2.0.0","159340","pt68as8ppoc","turtle","null","stimuli/playground_50.jpg","null","playground","H","non-repeat","null","115","stimuli/playground_50.jpg","","","","",""
"","","","","","image-keyboard-response","133","2.0.0","160345","pt68as8ppoc","turtle","null","stimuli/gym_9.jpg","null","gym","I","non-repeat","null","116","stimuli/gym_9.jpg","","","","",""
"","","","","","image-keyboard-response","134","2.0.0","161349","pt68as8ppoc","turtle","null","stimuli/bar_7.jpg","null","bar","J","non-repeat","null","117","stimuli/bar_7.jpg","","","","",""
"","","","","","image-keyboard-response","135","2.0.0","162353","pt68as8ppoc","turtle","null","stimuli/desert_21.jpg","null","desert","K","non-repeat","null","118","stimuli/desert_21.jpg","","","","",""
"","","","","","image-keyboard-response","136","2.0.0","163357","pt68as8ppoc","turtle","null","stimuli/bridge_1.jpg","null","bridge","L","non-repeat","null","119","stimuli/bridge_1.jpg","","","","",""
"","","","","","image-keyboard-response","137","2.0.0","164361","pt68as8ppoc","turtle","null","stimuli/woods_45.jpg","null","woods","G","non-repeat","null","120","stimuli/woods_45.jpg","","","","",""
"","","","","","image-keyboard-response","138","2.0.0","165365","pt68as8ppoc","turtle","null","stimuli/playground_50.jpg","null","playground","H","non-repeat","null","121","stimuli/playground_50.jpg","","","","",""
"","","","","","image-keyboard-response","139","2.0.0","166369","pt68as8ppoc","turtle","null","stimuli/gym_9.jpg","null","gym","I","non-repeat","null","122","stimuli/gym_9.jpg","","","","",""
"","","","","","image-keyboard-response","140","2.0.0","167373","pt68as8ppoc","turtle","null","stimuli/stream_16.jpg","null","stream","A","non-repeat","null","123","stimuli/stream_16.jpg","","","","",""
"","","","","","image-keyboard-response","141","2.0.0","168377","pt68as8ppoc","turtle","377","stimuli/stream_16.jpg"," ","stream","A","repeat"," ","123","","","","","",""
"","","","","","image-keyboard-response","142","2.0.0","169381","pt68as8ppoc","turtle","null","stimuli/kitchen_12.jpg","null","kitchen","B","non-repeat","null","124","stimuli/kitchen_12.jpg","","","","",""
"","","","","","image-keyboard-response","143","2.0.0","170384","pt68as8ppoc","turtle","null","stimuli/bathroom_30.jpg","null","bathroom","C","non-repeat","null","125","stimuli/bathroom_30.jpg","","","","",""
"","","","","","image-keyboard-response","144","2.0.0","171388","pt68as8ppoc","turtle","null","stimuli/field_16.jpg","null","field","D","non-repeat","null","126","stimuli/field_16.jpg","","","","",""
"","","","","","image-keyboard-response","145","2.0.0","172390","pt68as8ppoc","turtle","null","stimuli/street_27.jpg","null","street","E","non-repeat","null","127","stimuli/street_27.jpg","","","","",""
"","","","","","image-keyboard-response","146","2.0.0","173394","pt68as8ppoc","turtle","null","stimuli/coast_66.jpg","null","coast","F","non-repeat","null","128","stimuli/coast_66.jpg","","","","",""
"","","","","","image-keyboard-response","147","2.0.0","174402","pt68as8ppoc","turtle","572","stimuli/coast_66.jpg"," ","coast","F","repeat"," ","128","","","","","",""
"","","","","","image-keyboard-response","148","2.0.0","175407","pt68as8ppoc","turtle","null","stimuli/woods_45.jpg","null","woods","G","non-repeat","null","129","stimuli/woods_45.jpg","","","","",""
"","","","","","image-keyboard-response","149","2.0.0","176411","pt68as8ppoc","turtle","null","stimuli/playground_50.jpg","null","playground","H","non-repeat","null","130","stimuli/playground_50.jpg","","","","",""
"","","","","","image-keyboard-response","150","2.0.0","177415","pt68as8ppoc","turtle","null","stimuli/gym_9.jpg","null","gym","I","non-repeat","null","131","stimuli/gym_9.jpg","","","","",""
"","","","","","image-keyboard-response","151","2.0.0","178419","pt68as8ppoc","turtle","null","stimuli/field_16.jpg","null","field","D","non-repeat","null","132","stimuli/field_16.jpg","","","","",""
"","","","","","image-keyboard-response","152","2.0.0","179422","pt68as8ppoc","turtle","null","stimuli/street_27.jpg","null","street","E","non-repeat","null","133","stimuli/street_27.jpg","","","","",""
"","","","","","image-keyboard-response","153","2.0.0","180426","pt68as8ppoc","turtle","null","stimuli/coast_66.jpg","null","coast","F","non-repeat","null","134","stimuli/coast_66.jpg","","","","",""
"","","","","","image-keyboard-response","154","2.0.0","181430","pt68as8ppoc","turtle","null","stimuli/stream_16.jpg","null","stream","A","non-repeat","null","135","stimuli/stream_16.jpg","","","","",""
"","","","","","image-keyboard-response","155","2.0.0","182433","pt68as8ppoc","turtle","null","stimuli/kitchen_12.jpg","null","kitchen","B","non-repeat","null","136","stimuli/kitchen_12.jpg","","","","",""
"","","","","","image-keyboard-response","156","2.0.0","183438","pt68as8ppoc","turtle","null","stimuli/bathroom_30.jpg","null","bathroom","C","non-repeat","null","137","stimuli/bathroom_30.jpg","","","","",""
"","","","","","image-keyboard-response","157","2.0.0","184441","pt68as8ppoc","turtle","null","stimuli/woods_45.jpg","null","woods","G","non-repeat","null","138","stimuli/woods_45.jpg","","","","",""
"","","","","","image-keyboard-response","158","2.0.0","185444","pt68as8ppoc","turtle","451","stimuli/woods_45.jpg"," ","woods","G","repeat"," ","138","","","","","",""
"","","","","","image-keyboard-response","159","2.0.0","186448","pt68as8ppoc","turtle","null","stimuli/playground_50.jpg","null","playground","H","non-repeat","null","139","stimuli/playground_50.jpg","","","","",""
"","","","","","image-keyboard-response","160","2.0.0","187451","pt68as8ppoc","turtle","null","stimuli/gym_9.jpg","null","gym","I","non-repeat","null","140","stimuli/gym_9.jpg","","","","",""
"","","","","","image-keyboard-response","161","2.0.0","188455","pt68as8ppoc","turtle","null","stimuli/field_16.jpg","null","field","D","non-repeat","null","141","stimuli/field_16.jpg","","","","",""
"","","","","","image-keyboard-response","162","2.0.0","189459","pt68as8ppoc","turtle","null","stimuli/street_27.jpg","null","street","E","non-repeat","null","142","stimuli/street_27.jpg","","","","",""
"","","","","","image-keyboard-response","163","2.0.0","190463","pt68as8ppoc","turtle","null","stimuli/coast_66.jpg","null","coast","F","non-repeat","null","143","stimuli/coast_66.jpg","","","","",""
"","","","","","image-keyboard-response","164","2.0.0","191467","pt68as8ppoc","turtle","null","stimuli/stream_16.jpg","null","stream","A","non-repeat","null","144","stimuli/stream_16.jpg","","","","",""
"","","","","","image-keyboard-response","165","2.0.0","192470","pt68as8ppoc","turtle","null","stimuli/kitchen_12.jpg","null","kitchen","B","non-repeat","null","145","stimuli/kitchen_12.jpg","","","","",""
"","","","","","image-keyboard-response","166","2.0.0","193474","pt68as8ppoc","turtle","null","stimuli/bathroom_30.jpg","null","bathroom","C","non-repeat","null","146","stimuli/bathroom_30.jpg","","","","",""
"","","","","","image-keyboard-response","167","2.0.0","194477","pt68as8ppoc","turtle","null","stimuli/field_16.jpg","null","field","D","non-repeat","null","147","stimuli/field_16.jpg","","","","",""
"","","","","","image-keyboard-response","168","2.0.0","195481","pt68as8ppoc","turtle","null","stimuli/street_27.jpg","null","street","E","non-repeat","null","148","stimuli/street_27.jpg","","","","",""
"","","","","","image-keyboard-response","169","2.0.0","196486","pt68as8ppoc","turtle","null","stimuli/coast_66.jpg","null","coast","F","non-repeat","null","149","stimuli/coast_66.jpg","","","","",""
"","","","","","image-keyboard-response","170","2.0.0","197489","pt68as8ppoc","turtle","null","stimuli/woods_45.jpg","null","woods","G","non-repeat","null","150","stimuli/woods_45.jpg","","","","",""
"","","","","","image-keyboard-response","171","2.0.0","198493","pt68as8ppoc","turtle","null","stimuli/playground_50.jpg","null","playground","H","non-repeat","null","151","stimuli/playground_50.jpg","","","","",""
"","","","","","image-keyboard-response","172","2.0.0","199497","pt68as8ppoc","turtle","null","stimuli/gym_9.jpg","null","gym","I","non-repeat","null","152","stimuli/gym_9.jpg","","","","",""
"","","","","","image-keyboard-response","173","2.0.0","200501","pt68as8ppoc","turtle","null","stimuli/stream_16.jpg","null","stream","A","non-repeat","null","153","stimuli/stream_16.jpg","","","","",""
"","","","","","image-keyboard-response","174","2.0.0","201505","pt68as8ppoc","turtle","null","stimuli/kitchen_12.jpg","null","kitchen","B","non-repeat","null","154","stimuli/kitchen_12.jpg","","","","",""
"","","","","","image-keyboard-response","175","2.0.0","202509","pt68as8ppoc","turtle","null","stimuli/bathroom_30.jpg","null","bathroom","C","non-repeat","null","155","stimuli/bathroom_30.jpg","","","","",""
"","","","","","image-keyboard-response","176","2.0.0","203512","pt68as8ppoc","turtle","null","stimuli/bar_7.jpg","null","bar","J","non-repeat","null","156","stimuli/bar_7.jpg","","","","",""
"","","","","","image-keyboard-response","177","2.0.0","204517","pt68as8ppoc","turtle","null","stimuli/desert_21.jpg","null","desert","K","non-repeat","null","157","stimuli/desert_21.jpg","","","","",""
"","","","","","image-keyboard-response","178","2.0.0","205520","pt68as8ppoc","turtle","null","stimuli/bridge_1.jpg","null","bridge","L","non-repeat","null","158","stimuli/bridge_1.jpg","","","","",""
"","","","","","image-keyboard-response","179","2.0.0","206524","pt68as8ppoc","turtle","null","stimuli/woods_45.jpg","null","woods","G","non-repeat","null","159","stimuli/woods_45.jpg","","","","",""
"","","","","","image-keyboard-response","180","2.0.0","207528","pt68as8ppoc","turtle","395","stimuli/woods_45.jpg"," ","woods","G","repeat"," ","159","","","","","",""
"","","","","","image-keyboard-response","181","2.0.0","208532","pt68as8ppoc","turtle","null","stimuli/playground_50.jpg","null","playground","H","non-repeat","null","160","stimuli/playground_50.jpg","","","","",""
"","","","","","image-keyboard-response","182","2.0.0","209537","pt68as8ppoc","turtle","null","stimuli/gym_9.jpg","null","gym","I","non-repeat","null","161","stimuli/gym_9.jpg","","","","",""
"","","","","","image-keyboard-response","183","2.0.0","210541","pt68as8ppoc","turtle","393","stimuli/gym_9.jpg"," ","gym","I","repeat"," ","161","","","","","",""
"","","","","","image-keyboard-response","184","2.0.0","211545","pt68as8ppoc","turtle","null","stimuli/bar_7.jpg","null","bar","J","non-repeat","null","162","stimuli/bar_7.jpg","","","","",""
"","","","","","image-keyboard-response","185","2.0.0","212549","pt68as8ppoc","turtle","null","stimuli/desert_21.jpg","null","desert","K","non-repeat","null","163","stimuli/desert_21.jpg","","","","",""
"","","","","","image-keyboard-response","186","2.0.0","213553","pt68as8ppoc","turtle","null","stimuli/bridge_1.jpg","null","bridge","L","non-repeat","null","164","stimuli/bridge_1.jpg","","","","",""
"","","","","","image-keyboard-response","187","2.0.0","214558","pt68as8ppoc","turtle","null","stimuli/field_16.jpg","null","field","D","non-repeat","null","165","stimuli/field_16.jpg","","","","",""
"","","","","","image-keyboard-response","188","2.0.0","215562","pt68as8ppoc","turtle","null","stimuli/street_27.jpg","null","street","E","non-repeat","null","166","stimuli/street_27.jpg","","","","",""
"","","","","","image-keyboard-response","189","2.0.0","216565","pt68as8ppoc","turtle","null","stimuli/coast_66.jpg","null","coast","F","non-repeat","null","167","stimuli/coast_66.jpg","","","","",""
"","","","","","image-keyboard-response","190","2.0.0","217569","pt68as8ppoc","turtle","null","stimuli/woods_45.jpg","null","woods","G","non-repeat","null","168","stimuli/woods_45.jpg","","","","",""
"","","","","","image-keyboard-response","191","2.0.0","218573","pt68as8ppoc","turtle","null","stimuli/playground_50.jpg","null","playground","H","non-repeat","null","169","stimuli/playground_50.jpg","","","","",""
"","","","","","image-keyboard-response","192","2.0.0","219577","pt68as8ppoc","turtle","null","stimuli/gym_9.jpg","null","gym","I","non-repeat","null","170","stimuli/gym_9.jpg","","","","",""
"","","","","","image-keyboard-response","193","2.0.0","220582","pt68as8ppoc","turtle","400","stimuli/gym_9.jpg"," ","gym","I","repeat"," ","170","","","","","",""
"","","","","","image-keyboard-response","194","2.0.0","221586","pt68as8ppoc","turtle","null","stimuli/bar_7.jpg","null","bar","J","non-repeat","null","171","stimuli/bar_7.jpg","","","","",""
"","","","","","image-keyboard-response","195","2.0.0","222590","pt68as8ppoc","turtle","null","stimuli/desert_21.jpg","null","desert","K","non-repeat","null","172","stimuli/desert_21.jpg","","","","",""
"","","","","","image-keyboard-response","196","2.0.0","223593","pt68as8ppoc","turtle","null","stimuli/bridge_1.jpg","null","bridge","L","non-repeat","null","173","stimuli/bridge_1.jpg","","","","",""
"","","","","","image-keyboard-response","197","2.0.0","224598","pt68as8ppoc","turtle","null","stimuli/woods_45.jpg","null","woods","G","non-repeat","null","174","stimuli/woods_45.jpg","","","","",""
"","","","","","image-keyboard-response","198","2.0.0","225602","pt68as8ppoc","turtle","null","stimuli/playground_50.jpg","null","playground","H","non-repeat","null","175","stimuli/playground_50.jpg","","","","",""
"","","","","","image-keyboard-response","199","2.0.0","226606","pt68as8ppoc","turtle","null","stimuli/gym_9.jpg","null","gym","I","non-repeat","null","176","stimuli/gym_9.jpg","","","","",""
"","","","","","image-keyboard-response","200","2.0.0","227610","pt68as8ppoc","turtle","null","stimuli/bar_7.jpg","null","bar","J","non-repeat","null","177","stimuli/bar_7.jpg","","","","",""
"","","","","","image-keyboard-response","201","2.0.0","228615","pt68as8ppoc","turtle","625","stimuli/bar_7.jpg"," ","bar","J","repeat"," ","177","","","","","",""
"","","","","","image-keyboard-response","202","2.0.0","229619","pt68as8ppoc","turtle","null","stimuli/desert_21.jpg","null","desert","K","non-repeat","null","178","stimuli/desert_21.jpg","","","","",""
"","","","","","image-keyboard-response","203","2.0.0","230623","pt68as8ppoc","turtle","null","stimuli/bridge_1.jpg","null","bridge","L","non-repeat","null","179","stimuli/bridge_1.jpg","","","","",""
"","","","","","image-keyboard-response","204","2.0.0","231626","pt68as8ppoc","turtle","null","stimuli/field_16.jpg","null","field","D","non-repeat","null","180","stimuli/field_16.jpg","","","","",""
"","","","","","image-keyboard-response","205","2.0.0","232631","pt68as8ppoc","turtle","null","stimuli/street_27.jpg","null","street","E","non-repeat","null","181","stimuli/street_27.jpg","","","","",""
"","","","","","image-keyboard-response","206","2.0.0","233635","pt68as8ppoc","turtle","null","stimuli/coast_66.jpg","null","coast","F","non-repeat","null","182","stimuli/coast_66.jpg","","","","",""
"","","","","","image-keyboard-response","207","2.0.0","234638","pt68as8ppoc","turtle","null","stimuli/woods_45.jpg","null","woods","G","non-repeat","null","183","stimuli/woods_45.jpg","","","","",""
"","","","","","image-keyboard-response","208","2.0.0","235642","pt68as8ppoc","turtle","null","stimuli/playground_50.jpg","null","playground","H","non-repeat","null","184","stimuli/playground_50.jpg","","","","",""
"","","","","","image-keyboard-response","209","2.0.0","236647","pt68as8ppoc","turtle","null","stimuli/gym_9.jpg","null","gym","I","non-repeat","null","185","stimuli/gym_9.jpg","","","","",""
"","","","","","image-keyboard-response","210","2.0.0","237651","pt68as8ppoc","turtle","null","stimuli/bar_7.jpg","null","bar","J","non-repeat","null","186","stimuli/bar_7.jpg","","","","",""
"","","","","","image-keyboard-response","211","2.0.0","238655","pt68as8ppoc","turtle","null","stimuli/desert_21.jpg","null","desert","K","non-repeat","null","187","stimuli/desert_21.jpg","","","","",""
"","","","","","image-keyboard-response","212","2.0.0","239659","pt68as8ppoc","turtle","null","stimuli/bridge_1.jpg","null","bridge","L","non-repeat","null","188","stimuli/bridge_1.jpg","","","","",""
"","","","","","image-keyboard-response","213","2.0.0","240663","pt68as8ppoc","turtle","null","stimuli/stream_16.jpg","null","stream","A","non-repeat","null","189","stimuli/stream_16.jpg","","","","",""
"","","","","","image-keyboard-response","214","2.0.0","241667","pt68as8ppoc","turtle","578","stimuli/stream_16.jpg"," ","stream","A","repeat"," ","189","","","","","",""
"","","","","","image-keyboard-response","215","2.0.0","242671","pt68as8ppoc","turtle","null","stimuli/kitchen_12.jpg","null","kitchen","B","non-repeat","null","190","stimuli/kitchen_12.jpg","","","","",""
"","","","","","image-keyboard-response","216","2.0.0","243675","pt68as8ppoc","turtle","null","stimuli/bathroom_30.jpg","null","bathroom","C","non-repeat","null","191","stimuli/bathroom_30.jpg","","","","",""
"","","","","","image-keyboard-response","217","2.0.0","244679","pt68as8ppoc","turtle","null","stimuli/field_16.jpg","null","field","D","non-repeat","null","192","stimuli/field_16.jpg","","","","",""
"","","","","","image-keyboard-response","218","2.0.0","245683","pt68as8ppoc","turtle","null","stimuli/street_27.jpg","null","street","E","non-repeat","null","193","stimuli/street_27.jpg","","","","",""
"","","","","","image-keyboard-response","219","2.0.0","246687","pt68as8ppoc","turtle","null","stimuli/coast_66.jpg","null","coast","F","non-repeat","null","194","stimuli/coast_66.jpg","","","","",""
"","","","","","image-keyboard-response","220","2.0.0","247691","pt68as8ppoc","turtle","null","stimuli/woods_45.jpg","null","woods","G","non-repeat","null","195","stimuli/woods_45.jpg","","","","",""
"","","","","","image-keyboard-response","221","2.0.0","248696","pt68as8ppoc","turtle","375","stimuli/woods_45.jpg"," ","woods","G","repeat"," ","195","","","","","",""
"","","","","","image-keyboard-response","222","2.0.0","249698","pt68as8ppoc","turtle","null","stimuli/playground_50.jpg","null","playground","H","non-repeat","null","196","stimuli/playground_50.jpg","","","","",""
"","","","","","image-keyboard-response","223","2.0.0","250703","pt68as8ppoc","turtle","null","stimuli/gym_9.jpg","null","gym","I","non-repeat","null","197","stimuli/gym_9.jpg","","","","",""
"","","","","","image-keyboard-response","224","2.0.0","251707","pt68as8ppoc","turtle","393","stimuli/gym_9.jpg"," ","gym","I","repeat"," ","197","","","","","",""
"","","","","","image-keyboard-response","225","2.0.0","252712","pt68as8ppoc","turtle","null","stimuli/field_16.jpg","null","field","D","non-repeat","null","198","stimuli/field_16.jpg","","","","",""
"","","","","","image-keyboard-response","226","2.0.0","253715","pt68as8ppoc","turtle","null","stimuli/street_27.jpg","null","street","E","non-repeat","null","199","stimuli/street_27.jpg","","","","",""
"","","","","","image-keyboard-response","227","2.0.0","254719","pt68as8ppoc","turtle","null","stimuli/coast_66.jpg","null","coast","F","non-repeat","null","200","stimuli/coast_66.jpg","","","","",""
"","","","","","image-keyboard-response","228","2.0.0","255724","pt68as8ppoc","turtle","null","stimuli/stream_16.jpg","null","stream","A","non-repeat","null","201","stimuli/stream_16.jpg","","","","",""
"","","","","","image-keyboard-response","229","2.0.0","256727","pt68as8ppoc","turtle","null","stimuli/kitchen_12.jpg","null","kitchen","B","non-repeat","null","202","stimuli/kitchen_12.jpg","","","","",""
"","","","","","image-keyboard-response","230","2.0.0","257731","pt68as8ppoc","turtle","null","stimuli/bathroom_30.jpg","null","bathroom","C","non-repeat","null","203","stimuli/bathroom_30.jpg","","","","",""
"","","","","","image-keyboard-response","231","2.0.0","258734","pt68as8ppoc","turtle","null","stimuli/woods_45.jpg","null","woods","G","non-repeat","null","204","stimuli/woods_45.jpg","","","","",""
"","","","","","image-keyboard-response","232","2.0.0","259738","pt68as8ppoc","turtle","null","stimuli/playground_50.jpg","null","playground","H","non-repeat","null","205","stimuli/playground_50.jpg","","","","",""
"","","","","","image-keyboard-response","233","2.0.0","260743","pt68as8ppoc","turtle","null","stimuli/gym_9.jpg","null","gym","I","non-repeat","null","206","stimuli/gym_9.jpg","","","","",""
"","","","","","image-keyboard-response","234","2.0.0","261747","pt68as8ppoc","turtle","null","stimuli/field_16.jpg","null","field","D","non-repeat","null","207","stimuli/field_16.jpg","","","","",""
"","","","","","image-keyboard-response","235","2.0.0","262752","pt68as8ppoc","turtle","378","stimuli/field_16.jpg"," ","field","D","repeat"," ","207","","","","","",""
"","","","","","image-keyboard-response","236","2.0.0","263756","pt68as8ppoc","turtle","null","stimuli/street_27.jpg","null","street","E","non-repeat","null","208","stimuli/street_27.jpg","","","","",""
"","","","","","image-keyboard-response","237","2.0.0","264760","pt68as8ppoc","turtle","null","stimuli/coast_66.jpg","null","coast","F","non-repeat","null","209","stimuli/coast_66.jpg","","","","",""
"","","","","","image-keyboard-response","238","2.0.0","265764","pt68as8ppoc","turtle","null","stimuli/bar_7.jpg","null","bar","J","non-repeat","null","210","stimuli/bar_7.jpg","","","","",""
"","","","","","image-keyboard-response","239","2.0.0","266767","pt68as8ppoc","turtle","null","stimuli/desert_21.jpg","null","desert","K","non-repeat","null","211","stimuli/desert_21.jpg","","","","",""
"","","","","","image-keyboard-response","240","2.0.0","267772","pt68as8ppoc","turtle","null","stimuli/bridge_1.jpg","null","bridge","L","non-repeat","null","212","stimuli/bridge_1.jpg","","","","",""
"","","","","","image-keyboard-response","241","2.0.0","268775","pt68as8ppoc","turtle","null","stimuli/woods_45.jpg","null","woods","G","non-repeat","null","213","stimuli/woods_45.jpg","","","","",""
"","","","","","image-keyboard-response","242","2.0.0","269779","pt68as8ppoc","turtle","null","stimuli/playground_50.jpg","null","playground","H","non-repeat","null","214","stimuli/playground_50.jpg","","","","",""
"","","","","","image-keyboard-response","243","2.0.0","270784","pt68as8ppoc","turtle","null","stimuli/gym_9.jpg","null","gym","I","non-repeat","null","215","stimuli/gym_9.jpg","","","","",""
"","","","","","image-keyboard-response","244","2.0.0","271788","pt68as8ppoc","turtle","null","stimuli/bar_7.jpg","null","bar","J","non-repeat","null","216","stimuli/bar_7.jpg","","","","",""
"","","","","","image-keyboard-response","245","2.0.0","272792","pt68as8ppoc","turtle","null","stimuli/desert_21.jpg","null","desert","K","non-repeat","null","217","stimuli/desert_21.jpg","","","","",""
"","","","","","image-keyboard-response","246","2.0.0","273796","pt68as8ppoc","turtle","null","stimuli/bridge_1.jpg","null","bridge","L","non-repeat","null","218","stimuli/bridge_1.jpg","","","","",""
"","","","","","image-keyboard-response","247","2.0.0","274801","pt68as8ppoc","turtle","null","stimuli/stream_16.jpg","null","stream","A","non-repeat","null","219","stimuli/stream_16.jpg","","","","",""
"","","","","","image-keyboard-response","248","2.0.0","275804","pt68as8ppoc","turtle","null","stimuli/kitchen_12.jpg","null","kitchen","B","non-repeat","null","220","stimuli/kitchen_12.jpg","","","","",""
"","","","","","image-keyboard-response","249","2.0.0","276808","pt68as8ppoc","turtle","null","stimuli/bathroom_30.jpg","null","bathroom","C","non-repeat","null","221","stimuli/bathroom_30.jpg","","","","",""
"","","","","","image-keyboard-response","250","2.0.0","277812","pt68as8ppoc","turtle","606","stimuli/bathroom_30.jpg"," ","bathroom","C","repeat"," ","221","","","","","",""
"","","","","","image-keyboard-response","251","2.0.0","278816","pt68as8ppoc","turtle","null","stimuli/bar_7.jpg","null","bar","J","non-repeat","null","222","stimuli/bar_7.jpg","","","","",""
"","","","","","image-keyboard-response","252","2.0.0","279820","pt68as8ppoc","turtle","null","stimuli/desert_21.jpg","null","desert","K","non-repeat","null","223","stimuli/desert_21.jpg","","","","",""
"","","","","","image-keyboard-response","253","2.0.0","280825","pt68as8ppoc","turtle","null","stimuli/bridge_1.jpg","null","bridge","L","non-repeat","null","224","stimuli/bridge_1.jpg","","","","",""
"","","","","","image-keyboard-response","254","2.0.0","281829","pt68as8ppoc","turtle","444","stimuli/bridge_1.jpg"," ","bridge","L","repeat"," ","224","","","","","",""
"","","","","","image-keyboard-response","255","2.0.0","282832","pt68as8ppoc","turtle","null","stimuli/stream_16.jpg","null","stream","A","non-repeat","null","225","stimuli/stream_16.jpg","","","","",""
"","","","","","image-keyboard-response","256","2.0.0","283837","pt68as8ppoc","turtle","null","stimuli/kitchen_12.jpg","null","kitchen","B","non-repeat","null","226","stimuli/kitchen_12.jpg","","","","",""
"","","","","","image-keyboard-response","257","2.0.0","284842","pt68as8ppoc","turtle","null","stimuli/bathroom_30.jpg","null","bathroom","C","non-repeat","null","227","stimuli/bathroom_30.jpg","","","","",""
"","","","","","image-keyboard-response","258","2.0.0","285845","pt68as8ppoc","turtle","414","stimuli/bathroom_30.jpg"," ","bathroom","C","repeat"," ","227","","","","","",""
"","","","","","image-keyboard-response","259","2.0.0","286849","pt68as8ppoc","turtle","null","stimuli/field_16.jpg","null","field","D","non-repeat","null","228","stimuli/field_16.jpg","","","","",""
"","","","","","image-keyboard-response","260","2.0.0","287852","pt68as8ppoc","turtle","null","stimuli/street_27.jpg","null","street","E","non-repeat","null","229","stimuli/street_27.jpg","","","","",""
"","","","","","image-keyboard-response","261","2.0.0","288856","pt68as8ppoc","turtle","null","stimuli/coast_66.jpg","null","coast","F","non-repeat","null","230","stimuli/coast_66.jpg","","","","",""
"","","","","","image-keyboard-response","262","2.0.0","289860","pt68as8ppoc","turtle","null","stimuli/stream_16.jpg","null","stream","A","non-repeat","null","231","stimuli/stream_16.jpg","","","","",""
"","","","","","image-keyboard-response","263","2.0.0","290865","pt68as8ppoc","turtle","415","stimuli/stream_16.jpg"," ","stream","A","repeat"," ","231","","","","","",""
"","","","","","image-keyboard-response","264","2.0.0","291869","pt68as8ppoc","turtle","null","stimuli/kitchen_12.jpg","null","kitchen","B","non-repeat","null","232","stimuli/kitchen_12.jpg","","","","",""
"","","","","","image-keyboard-response","265","2.0.0","292872","pt68as8ppoc","turtle","null","stimuli/bathroom_30.jpg","null","bathroom","C","non-repeat","null","233","stimuli/bathroom_30.jpg","","","","",""
"","","","","","image-keyboard-response","266","2.0.0","293875","pt68as8ppoc","turtle","null","stimuli/bar_7.jpg","null","bar","J","non-repeat","null","234","stimuli/bar_7.jpg","","","","",""
"","","","","","image-keyboard-response","267","2.0.0","294879","pt68as8ppoc","turtle","null","stimuli/desert_21.jpg","null","desert","K","non-repeat","null","235","stimuli/desert_21.jpg","","","","",""
"","","","","","image-keyboard-response","268","2.0.0","295884","pt68as8ppoc","turtle","null","stimuli/bridge_1.jpg","null","bridge","L","non-repeat","null","236","stimuli/bridge_1.jpg","","","","",""
"","","","","","image-keyboard-response","269","2.0.0","296887","pt68as8ppoc","turtle","null","stimuli/woods_45.jpg","null","woods","G","non-repeat","null","237","stimuli/woods_45.jpg","","","","",""
"","","","","","image-keyboard-response","270","2.0.0","297891","pt68as8ppoc","turtle","null","stimuli/playground_50.jpg","null","playground","H","non-repeat","null","238","stimuli/playground_50.jpg","","","","",""
"","","","","","image-keyboard-response","271","2.0.0","298896","pt68as8ppoc","turtle","null","stimuli/gym_9.jpg","null","gym","I","non-repeat","null","239","stimuli/gym_9.jpg","","","","",""
"","","","","","image-keyboard-response","272","2.0.0","299900","pt68as8ppoc","turtle","null","stimuli/field_16.jpg","null","field","D","non-repeat","null","240","stimuli/field_16.jpg","","","","",""
"","","","","","image-keyboard-response","273","2.0.0","300904","pt68as8ppoc","turtle","null","stimuli/street_27.jpg","null","street","E","non-repeat","null","241","stimuli/street_27.jpg","","","","",""
"","","","","","image-keyboard-response","274","2.0.0","301908","pt68as8ppoc","turtle","null","stimuli/coast_66.jpg","null","coast","F","non-repeat","null","242","stimuli/coast_66.jpg","","","","",""
"","","","","","image-keyboard-response","275","2.0.0","302913","pt68as8ppoc","turtle","null","stimuli/bar_7.jpg","null","bar","J","non-repeat","null","243","stimuli/bar_7.jpg","","","","",""
"","","","","","image-keyboard-response","276","2.0.0","303917","pt68as8ppoc","turtle","null","stimuli/desert_21.jpg","null","desert","K","non-repeat","null","244","stimuli/desert_21.jpg","","","","",""
"","","","","","image-keyboard-response","277","2.0.0","304920","pt68as8ppoc","turtle","null","stimuli/bridge_1.jpg","null","bridge","L","non-repeat","null","245","stimuli/bridge_1.jpg","","","","",""
"","","","","","image-keyboard-response","278","2.0.0","305924","pt68as8ppoc","turtle","345","stimuli/bridge_1.jpg"," ","bridge","L","repeat"," ","245","","","","","",""
"","","","","","image-keyboard-response","279","2.0.0","306928","pt68as8ppoc","turtle","null","stimuli/stream_16.jpg","null","stream","A","non-repeat","null","246","stimuli/stream_16.jpg","","","","",""
"","","","","","image-keyboard-response","280","2.0.0","307933","pt68as8ppoc","turtle","466","stimuli/stream_16.jpg"," ","stream","A","repeat"," ","246","","","","","",""
"","","","","","image-keyboard-response","281","2.0.0","308936","pt68as8ppoc","turtle","null","stimuli/kitchen_12.jpg","null","kitchen","B","non-repeat","null","247","stimuli/kitchen_12.jpg","","","","",""
"","","","","","image-keyboard-response","282","2.0.0","309941","pt68as8ppoc","turtle","null","stimuli/bathroom_30.jpg","null","bathroom","C","non-repeat","null","248","stimuli/bathroom_30.jpg","","","","",""
"","","","","","image-keyboard-response","283","2.0.0","310944","pt68as8ppoc","turtle","null","stimuli/field_16.jpg","null","field","D","non-repeat","null","249","stimuli/field_16.jpg","","","","",""
"","","","","","image-keyboard-response","284","2.0.0","311948","pt68as8ppoc","turtle","null","stimuli/street_27.jpg","null","street","E","non-repeat","null","250","stimuli/street_27.jpg","","","","",""
"","","","","","image-keyboard-response","285","2.0.0","312951","pt68as8ppoc","turtle","null","stimuli/coast_66.jpg","null","coast","F","non-repeat","null","251","stimuli/coast_66.jpg","","","","",""
"","","","","","image-keyboard-response","286","2.0.0","313954","pt68as8ppoc","turtle","null","stimuli/stream_16.jpg","null","stream","A","non-repeat","null","252","stimuli/stream_16.jpg","","","","",""
"","","","","","image-keyboard-response","287","2.0.0","314956","pt68as8ppoc","turtle","null","stimuli/kitchen_12.jpg","null","kitchen","B","non-repeat","null","253","stimuli/kitchen_12.jpg","","","","",""
"","","","","","image-keyboard-response","288","2.0.0","315959","pt68as8ppoc","turtle","null","stimuli/bathroom_30.jpg","null","bathroom","C","non-repeat","null","254","stimuli/bathroom_30.jpg","","","","",""
"","","","","","image-keyboard-response","289","2.0.0","316962","pt68as8ppoc","turtle","null","stimuli/field_16.jpg","null","field","D","non-repeat","null","255","stimuli/field_16.jpg","","","","",""
"","","","","","image-keyboard-response","290","2.0.0","317965","pt68as8ppoc","turtle","null","stimuli/street_27.jpg","null","street","E","non-repeat","null","256","stimuli/street_27.jpg","","","","",""
"","","","","","image-keyboard-response","291","2.0.0","318968","pt68as8ppoc","turtle","null","stimuli/coast_66.jpg","null","coast","F","non-repeat","null","257","stimuli/coast_66.jpg","","","","",""
"","","","","","image-keyboard-response","292","2.0.0","319972","pt68as8ppoc","turtle","372","stimuli/coast_66.jpg"," ","coast","F","repeat"," ","257","","","","","",""
"","","","","","image-keyboard-response","293","2.0.0","320975","pt68as8ppoc","turtle","null","stimuli/woods_45.jpg","null","woods","G","non-repeat","null","258","stimuli/woods_45.jpg","","","","",""
"","","","","","image-keyboard-response","294","2.0.0","321978","pt68as8ppoc","turtle","null","stimuli/playground_50.jpg","null","playground","H","non-repeat","null","259","stimuli/playground_50.jpg","","","","",""
"","","","","","image-keyboard-response","295","2.0.0","322982","pt68as8ppoc","turtle","null","stimuli/gym_9.jpg","null","gym","I","non-repeat","null","260","stimuli/gym_9.jpg","","","","",""
"","","","","","image-keyboard-response","296","2.0.0","323985","pt68as8ppoc","turtle","407","stimuli/gym_9.jpg"," ","gym","I","repeat"," ","260","","","","","",""
"","","","","","image-keyboard-response","297","2.0.0","324988","pt68as8ppoc","turtle","null","stimuli/field_16.jpg","null","field","D","non-repeat","null","261","stimuli/field_16.jpg","","","","",""
"","","","","","image-keyboard-response","298","2.0.0","325991","pt68as8ppoc","turtle","null","stimuli/street_27.jpg","null","street","E","non-repeat","null","262","stimuli/street_27.jpg","","","","",""
"","","","","","image-keyboard-response","299","2.0.0","326993","pt68as8ppoc","turtle","null","stimuli/coast_66.jpg","null","coast","F","non-repeat","null","263","stimuli/coast_66.jpg","","","","",""
"","","","","","image-keyboard-response","300","2.0.0","327997","pt68as8ppoc","turtle","null","stimuli/bar_7.jpg","null","bar","J","non-repeat","null","264","stimuli/bar_7.jpg","","","","",""
"","","","","","image-keyboard-response","301","2.0.0","328999","pt68as8ppoc","turtle","null","stimuli/desert_21.jpg","null","desert","K","non-repeat","null","265","stimuli/desert_21.jpg","","","","",""
"","","","","","image-keyboard-response","302","2.0.0","330002","pt68as8ppoc","turtle","null","stimuli/bridge_1.jpg","null","bridge","L","non-repeat","null","266","stimuli/bridge_1.jpg","","","","",""
"","","","","","image-keyboard-response","303","2.0.0","331006","pt68as8ppoc","turtle","404","stimuli/bridge_1.jpg"," ","bridge","L","repeat"," ","266","","","","","",""
"","","","","","image-keyboard-response","304","2.0.0","332010","pt68as8ppoc","turtle","null","stimuli/woods_45.jpg","null","woods","G","non-repeat","null","267","stimuli/woods_45.jpg","","","","",""
"","","","","","image-keyboard-response","305","2.0.0","333014","pt68as8ppoc","turtle","355","stimuli/woods_45.jpg"," ","woods","G","repeat"," ","267","","","","","",""
"","","","","","image-keyboard-response","306","2.0.0","334017","pt68as8ppoc","turtle","null","stimuli/playground_50.jpg","null","playground","H","non-repeat","null","268","stimuli/playground_50.jpg","","","","",""
"","","","","","image-keyboard-response","307","2.0.0","335021","pt68as8ppoc","turtle","null","stimuli/gym_9.jpg","null","gym","I","non-repeat","null","269","stimuli/gym_9.jpg","","","","",""
"","","","","","image-keyboard-response","308","2.0.0","336026","pt68as8ppoc","turtle","null","stimuli/bar_7.jpg","null","bar","J","non-repeat","null","270","stimuli/bar_7.jpg","","","","",""
"","","","","","image-keyboard-response","309","2.0.0","337029","pt68as8ppoc","turtle","null","stimuli/desert_21.jpg","null","desert","K","non-repeat","null","271","stimuli/desert_21.jpg","","","","",""
"","","","","","image-keyboard-response","310","2.0.0","338033","pt68as8ppoc","turtle","null","stimuli/bridge_1.jpg","null","bridge","L","non-repeat","null","272","stimuli/bridge_1.jpg","","","","",""
"","","","","","image-keyboard-response","311","2.0.0","339036","pt68as8ppoc","turtle","null","stimuli/field_16.jpg","null","field","D","non-repeat","null","273","stimuli/field_16.jpg","","","","",""
"","","","","","image-keyboard-response","312","2.0.0","340039","pt68as8ppoc","turtle","null","stimuli/street_27.jpg","null","street","E","non-repeat","null","274","stimuli/street_27.jpg","","","","",""
"","","","","","image-keyboard-response","313","2.0.0","341043","pt68as8ppoc","turtle","null","stimuli/coast_66.jpg","null","coast","F","non-repeat","null","275","stimuli/coast_66.jpg","","","","",""
"","","","","","image-keyboard-response","314","2.0.0","342047","pt68as8ppoc","turtle","null","stimuli/stream_16.jpg","null","stream","A","non-repeat","null","276","stimuli/stream_16.jpg","","","","",""
"","","","","","image-keyboard-response","315","2.0.0","343050","pt68as8ppoc","turtle","null","stimuli/kitchen_12.jpg","null","kitchen","B","non-repeat","null","277","stimuli/kitchen_12.jpg","","","","",""
"","","","","","image-keyboard-response","316","2.0.0","344053","pt68as8ppoc","turtle","null","stimuli/bathroom_30.jpg","null","bathroom","C","non-repeat","null","278","stimuli/bathroom_30.jpg","","","","",""
"","","","","","image-keyboard-response","317","2.0.0","345057","pt68as8ppoc","turtle","null","stimuli/field_16.jpg","null","field","D","non-repeat","null","279","stimuli/field_16.jpg","","","","",""
"","","","","","image-keyboard-response","318","2.0.0","346061","pt68as8ppoc","turtle","null","stimuli/street_27.jpg","null","street","E","non-repeat","null","280","stimuli/street_27.jpg","","","","",""
"","","","","","image-keyboard-response","319","2.0.0","347066","pt68as8ppoc","turtle","null","stimuli/coast_66.jpg","null","coast","F","non-repeat","null","281","stimuli/coast_66.jpg","","","","",""
"","","","","","image-keyboard-response","320","2.0.0","348070","pt68as8ppoc","turtle","478","stimuli/coast_66.jpg"," ","coast","F","repeat"," ","281","","","","","",""
"","","","","","image-keyboard-response","321","2.0.0","349074","pt68as8ppoc","turtle","null","stimuli/bar_7.jpg","null","bar","J","non-repeat","null","282","stimuli/bar_7.jpg","","","","",""
"","","","","","image-keyboard-response","322","2.0.0","350077","pt68as8ppoc","turtle","null","stimuli/desert_21.jpg","null","desert","K","non-repeat","null","283","stimuli/desert_21.jpg","","","","",""
"","","","","","image-keyboard-response","323","2.0.0","351081","pt68as8ppoc","turtle","null","stimuli/bridge_1.jpg","null","bridge","L","non-repeat","null","284","stimuli/bridge_1.jpg","","","","",""
"","","","","","image-keyboard-response","324","2.0.0","352085","pt68as8ppoc","turtle","null","stimuli/stream_16.jpg","null","stream","A","non-repeat","null","285","stimuli/stream_16.jpg","","","","",""
"","","","","","image-keyboard-response","325","2.0.0","353089","pt68as8ppoc","turtle","542","stimuli/stream_16.jpg"," ","stream","A","repeat"," ","285","","","","","",""
"","","","","","image-keyboard-response","326","2.0.0","354093","pt68as8ppoc","turtle","null","stimuli/kitchen_12.jpg","null","kitchen","B","non-repeat","null","286","stimuli/kitchen_12.jpg","","","","",""
"","","","","","image-keyboard-response","327","2.0.0","355097","pt68as8ppoc","turtle","null","stimuli/bathroom_30.jpg","null","bathroom","C","non-repeat","null","287","stimuli/bathroom_30.jpg","","","","",""
"","","","","","image-keyboard-response","328","2.0.0","356101","pt68as8ppoc","turtle","null","stimuli/field_16.jpg","null","field","D","non-repeat","null","288","stimuli/field_16.jpg","","","","",""
"","","","","","image-keyboard-response","329","2.0.0","357105","pt68as8ppoc","turtle","null","stimuli/street_27.jpg","null","street","E","non-repeat","null","289","stimuli/street_27.jpg","","","","",""
"","","","","","image-keyboard-response","330","2.0.0","358108","pt68as8ppoc","turtle","519","stimuli/coast_66.jpg"," ","coast","F","non-repeat","null","290","stimuli/coast_66.jpg","","","","",""
"","","","","","image-keyboard-response","331","2.0.0","359112","pt68as8ppoc","turtle","null","stimuli/bar_7.jpg","null","bar","J","non-repeat","null","291","stimuli/bar_7.jpg","","","","",""
"","","","","","image-keyboard-response","332","2.0.0","360116","pt68as8ppoc","turtle","595","stimuli/bar_7.jpg"," ","bar","J","repeat"," ","291","","","","","",""
"","","","","","image-keyboard-response","333","2.0.0","361120","pt68as8ppoc","turtle","null","stimuli/desert_21.jpg","null","desert","K","non-repeat","null","292","stimuli/desert_21.jpg","","","","",""
"","","","","","image-keyboard-response","334","2.0.0","362123","pt68as8ppoc","turtle","null","stimuli/bridge_1.jpg","null","bridge","L","non-repeat","null","293","stimuli/bridge_1.jpg","","","","",""
"","","","","","image-keyboard-response","335","2.0.0","363126","pt68as8ppoc","turtle","662","stimuli/bridge_1.jpg"," ","bridge","L","repeat"," ","293","","","","","",""
"","","","","","image-keyboard-response","336","2.0.0","364129","pt68as8ppoc","turtle","null","stimuli/woods_45.jpg","null","woods","G","non-repeat","null","294","stimuli/woods_45.jpg","","","","",""
"","","","","","image-keyboard-response","337","2.0.0","365133","pt68as8ppoc","turtle","null","stimuli/playground_50.jpg","null","playground","H","non-repeat","null","295","stimuli/playground_50.jpg","","","","",""
"","","","","","image-keyboard-response","338","2.0.0","366136","pt68as8ppoc","turtle","null","stimuli/gym_9.jpg","null","gym","I","non-repeat","null","296","stimuli/gym_9.jpg","","","","",""
"","","","","","image-keyboard-response","339","2.0.0","367140","pt68as8ppoc","turtle","null","stimuli/bar_7.jpg","null","bar","J","non-repeat","null","297","stimuli/bar_7.jpg","","","","",""
"","","","","","image-keyboard-response","340","2.0.0","368144","pt68as8ppoc","turtle","null","stimuli/desert_21.jpg","null","desert","K","non-repeat","null","298","stimuli/desert_21.jpg","","","","",""
"","","","","","image-keyboard-response","341","2.0.0","369148","pt68as8ppoc","turtle","null","stimuli/bridge_1.jpg","null","bridge","L","non-repeat","null","299","stimuli/bridge_1.jpg","","","","",""
"","","","","","image-keyboard-response","342","2.0.0","370151","pt68as8ppoc","turtle","null","stimuli/bridge_1.jpg","null","bridge","L","repeat"," ","299","","","","","",""
"","","","","","image-keyboard-response","343","2.0.0","371155","pt68as8ppoc","turtle","null","stimuli/woods_45.jpg","null","woods","G","non-repeat","null","300","stimuli/woods_45.jpg","","","","",""
"","","","","","image-keyboard-response","344","2.0.0","372159","pt68as8ppoc","turtle","360","stimuli/woods_45.jpg"," ","woods","G","repeat"," ","300","","","","","",""
"","","","","","image-keyboard-response","345","2.0.0","373163","pt68as8ppoc","turtle","null","stimuli/playground_50.jpg","null","playground","H","non-repeat","null","301","stimuli/playground_50.jpg","","","","",""
"","","","","","image-keyboard-response","346","2.0.0","374167","pt68as8ppoc","turtle","null","stimuli/gym_9.jpg","null","gym","I","non-repeat","null","302","stimuli/gym_9.jpg","","","","",""
"","","","","","image-keyboard-response","347","2.0.0","375171","pt68as8ppoc","turtle","456","stimuli/bar_7.jpg"," ","bar","J","non-repeat","null","303","stimuli/bar_7.jpg","","","","",""
"","","","","","image-keyboard-response","348","2.0.0","376175","pt68as8ppoc","turtle","594","stimuli/bar_7.jpg"," ","bar","J","repeat"," ","303","","","","","",""
"","","","","","image-keyboard-response","349","2.0.0","377179","pt68as8ppoc","turtle","null","stimuli/desert_21.jpg","null","desert","K","non-repeat","null","304","stimuli/desert_21.jpg","","","","",""
"","","","","","image-keyboard-response","350","2.0.0","378184","pt68as8ppoc","turtle","null","stimuli/bridge_1.jpg","null","bridge","L","non-repeat","null","305","stimuli/bridge_1.jpg","","","","",""
"","","","","","image-keyboard-response","351","2.0.0","379188","pt68as8ppoc","turtle","null","stimuli/stream_16.jpg","null","stream","A","non-repeat","null","306","stimuli/stream_16.jpg","","","","",""
"","","","","","image-keyboard-response","352","2.0.0","380192","pt68as8ppoc","turtle","388","stimuli/stream_16.jpg"," ","stream","A","repeat"," ","306","","","","","",""
"","","","","","image-keyboard-response","353","2.0.0","381196","pt68as8ppoc","turtle","null","stimuli/kitchen_12.jpg","null","kitchen","B","non-repeat","null","307","stimuli/kitchen_12.jpg","","","","",""
"","","","","","image-keyboard-response","354","2.0.0","382200","pt68as8ppoc","turtle","null","stimuli/bathroom_30.jpg","null","bathroom","C","non-repeat","null","308","stimuli/bathroom_30.jpg","","","","",""
"","","","","","image-keyboard-response","355","2.0.0","383204","pt68as8ppoc","turtle","null","stimuli/field_16.jpg","null","field","D","non-repeat","null","309","stimuli/field_16.jpg","","","","",""
"","","","","","image-keyboard-response","356","2.0.0","384208","pt68as8ppoc","turtle","null","stimuli/street_27.jpg","null","street","E","non-repeat","null","310","stimuli/street_27.jpg","","","","",""
"","","","","","image-keyboard-response","357","2.0.0","385211","pt68as8ppoc","turtle","null","stimuli/coast_66.jpg","null","coast","F","non-repeat","null","311","stimuli/coast_66.jpg","","","","",""
"","","","","","image-keyboard-response","358","2.0.0","386215","pt68as8ppoc","turtle","null","stimuli/stream_16.jpg","null","stream","A","non-repeat","null","312","stimuli/stream_16.jpg","","","","",""
"","","","","","image-keyboard-response","359","2.0.0","387219","pt68as8ppoc","turtle","null","stimuli/kitchen_12.jpg","null","kitchen","B","non-repeat","null","313","stimuli/kitchen_12.jpg","","","","",""
"","","","","","image-keyboard-response","360","2.0.0","388223","pt68as8ppoc","turtle","null","stimuli/bathroom_30.jpg","null","bathroom","C","non-repeat","null","314","stimuli/bathroom_30.jpg","","","","",""
"","","","","","image-keyboard-response","361","2.0.0","389227","pt68as8ppoc","turtle","540","stimuli/bathroom_30.jpg"," ","bathroom","C","repeat"," ","314","","","","","",""
"","","","","","image-keyboard-response","362","2.0.0","390231","pt68as8ppoc","turtle","null","stimuli/field_16.jpg","null","field","D","non-repeat","null","315","stimuli/field_16.jpg","","","","",""
"","","","","","image-keyboard-response","363","2.0.0","391235","pt68as8ppoc","turtle","null","stimuli/street_27.jpg","null","street","E","non-repeat","null","316","stimuli/street_27.jpg","","","","",""
"","","","","","image-keyboard-response","364","2.0.0","392238","pt68as8ppoc","turtle","null","stimuli/coast_66.jpg","null","coast","F","non-repeat","null","317","stimuli/coast_66.jpg","","","","",""
"","","","","","image-keyboard-response","365","2.0.0","393241","pt68as8ppoc","turtle","null","stimuli/woods_45.jpg","null","woods","G","non-repeat","null","318","stimuli/woods_45.jpg","","","","",""
"","","","","","image-keyboard-response","366","2.0.0","394245","pt68as8ppoc","turtle","null","stimuli/playground_50.jpg","null","playground","H","non-repeat","null","319","stimuli/playground_50.jpg","","","","",""
"","","","","","image-keyboard-response","367","2.0.0","395248","pt68as8ppoc","turtle","null","stimuli/gym_9.jpg","null","gym","I","non-repeat","null","320","stimuli/gym_9.jpg","","","","",""
"","","","","","image-keyboard-response","368","2.0.0","396253","pt68as8ppoc","turtle","null","stimuli/bar_7.jpg","null","bar","J","non-repeat","null","321","stimuli/bar_7.jpg","","","","",""
"","","","","","image-keyboard-response","369","2.0.0","397257","pt68as8ppoc","turtle","null","stimuli/desert_21.jpg","null","desert","K","non-repeat","null","322","stimuli/desert_21.jpg","","","","",""
"","","","","","image-keyboard-response","370","2.0.0","398261","pt68as8ppoc","turtle","null","stimuli/bridge_1.jpg","null","bridge","L","non-repeat","null","323","stimuli/bridge_1.jpg","","","","",""
"","","","","","image-keyboard-response","371","2.0.0","399264","pt68as8ppoc","turtle","315","stimuli/bridge_1.jpg"," ","bridge","L","repeat"," ","323","","","","","",""
"","","","","","image-keyboard-response","372","2.0.0","400268","pt68as8ppoc","turtle","null","stimuli/woods_45.jpg","null","woods","G","non-repeat","null","324","stimuli/woods_45.jpg","","","","",""
"","","","","","image-keyboard-response","373","2.0.0","401272","pt68as8ppoc","turtle","null","stimuli/playground_50.jpg","null","playground","H","non-repeat","null","325","stimuli/playground_50.jpg","","","","",""
"","","","","","image-keyboard-response","374","2.0.0","402276","pt68as8ppoc","turtle","null","stimuli/gym_9.jpg","null","gym","I","non-repeat","null","326","stimuli/gym_9.jpg","","","","",""
"","","","","","image-keyboard-response","375","2.0.0","403279","pt68as8ppoc","turtle","null","stimuli/stream_16.jpg","null","stream","A","non-repeat","null","327","stimuli/stream_16.jpg","","","","",""
"","","","","","image-keyboard-response","376","2.0.0","404283","pt68as8ppoc","turtle","null","stimuli/kitchen_12.jpg","null","kitchen","B","non-repeat","null","328","stimuli/kitchen_12.jpg","","","","",""
"","","","","","image-keyboard-response","377","2.0.0","405287","pt68as8ppoc","turtle","null","stimuli/bathroom_30.jpg","null","bathroom","C","non-repeat","null","329","stimuli/bathroom_30.jpg","","","","",""
"","","","","","image-keyboard-response","378","2.0.0","406291","pt68as8ppoc","turtle","null","stimuli/woods_45.jpg","null","woods","G","non-repeat","null","330","stimuli/woods_45.jpg","","","","",""
"","","","","","image-keyboard-response","379","2.0.0","407295","pt68as8ppoc","turtle","null","stimuli/playground_50.jpg","null","playground","H","non-repeat","null","331","stimuli/playground_50.jpg","","","","",""
"","","","","","image-keyboard-response","380","2.0.0","408299","pt68as8ppoc","turtle","null","stimuli/gym_9.jpg","null","gym","I","non-repeat","null","332","stimuli/gym_9.jpg","","","","",""
"","","","","","image-keyboard-response","381","2.0.0","409303","pt68as8ppoc","turtle","null","stimuli/field_16.jpg","null","field","D","non-repeat","null","333","stimuli/field_16.jpg","","","","",""
"","","","","","image-keyboard-response","382","2.0.0","410307","pt68as8ppoc","turtle","620","stimuli/field_16.jpg"," ","field","D","repeat"," ","333","","","","","",""
"","","","","","image-keyboard-response","383","2.0.0","411311","pt68as8ppoc","turtle","null","stimuli/street_27.jpg","null","street","E","non-repeat","null","334","stimuli/street_27.jpg","","","","",""
"","","","","","image-keyboard-response","384","2.0.0","412315","pt68as8ppoc","turtle","null","stimuli/coast_66.jpg","null","coast","F","non-repeat","null","335","stimuli/coast_66.jpg","","","","",""
"","","","","","image-keyboard-response","385","2.0.0","413319","pt68as8ppoc","turtle","null","stimuli/stream_16.jpg","null","stream","A","non-repeat","null","336","stimuli/stream_16.jpg","","","","",""
"","","","","","image-keyboard-response","386","2.0.0","414321","pt68as8ppoc","turtle","null","stimuli/kitchen_12.jpg","null","kitchen","B","non-repeat","null","337","stimuli/kitchen_12.jpg","","","","",""
"","","","","","image-keyboard-response","387","2.0.0","415325","pt68as8ppoc","turtle","null","stimuli/bathroom_30.jpg","null","bathroom","C","non-repeat","null","338","stimuli/bathroom_30.jpg","","","","",""
"","","","","","image-keyboard-response","388","2.0.0","416329","pt68as8ppoc","turtle","null","stimuli/bar_7.jpg","null","bar","J","non-repeat","null","339","stimuli/bar_7.jpg","","","","",""
"","","","","","image-keyboard-response","389","2.0.0","417333","pt68as8ppoc","turtle","601","stimuli/bar_7.jpg"," ","bar","J","repeat"," ","339","","","","","",""
"","","","","","image-keyboard-response","390","2.0.0","418337","pt68as8ppoc","turtle","null","stimuli/desert_21.jpg","null","desert","K","non-repeat","null","340","stimuli/desert_21.jpg","","","","",""
"","","","","","image-keyboard-response","391","2.0.0","419341","pt68as8ppoc","turtle","null","stimuli/bridge_1.jpg","null","bridge","L","non-repeat","null","341","stimuli/bridge_1.jpg","","","","",""
"","","","","","image-keyboard-response","392","2.0.0","420345","pt68as8ppoc","turtle","null","stimuli/field_16.jpg","null","field","D","non-repeat","null","342","stimuli/field_16.jpg","","","","",""
"","","","","","image-keyboard-response","393","2.0.0","421349","pt68as8ppoc","turtle","null","stimuli/street_27.jpg","null","street","E","non-repeat","null","343","stimuli/street_27.jpg","","","","",""
"","","","","","image-keyboard-response","394","2.0.0","422353","pt68as8ppoc","turtle","null","stimuli/coast_66.jpg","null","coast","F","non-repeat","null","344","stimuli/coast_66.jpg","","","","",""
"","","","","","image-keyboard-response","395","2.0.0","423357","pt68as8ppoc","turtle","null","stimuli/bar_7.jpg","null","bar","J","non-repeat","null","345","stimuli/bar_7.jpg","","","","",""
"","","","","","image-keyboard-response","396","2.0.0","424361","pt68as8ppoc","turtle","325","stimuli/bar_7.jpg"," ","bar","J","repeat"," ","345","","","","","",""
"","","","","","image-keyboard-response","397","2.0.0","425365","pt68as8ppoc","turtle","null","stimuli/desert_21.jpg","null","desert","K","non-repeat","null","346","stimuli/desert_21.jpg","","","","",""
"","","","","","image-keyboard-response","398","2.0.0","426369","pt68as8ppoc","turtle","null","stimuli/bridge_1.jpg","null","bridge","L","non-repeat","null","347","stimuli/bridge_1.jpg","","","","",""
"","","","","","image-keyboard-response","399","2.0.0","427373","pt68as8ppoc","turtle","null","stimuli/field_16.jpg","null","field","D","non-repeat","null","348","stimuli/field_16.jpg","","","","",""
"","","","","","image-keyboard-response","400","2.0.0","428376","pt68as8ppoc","turtle","507","stimuli/field_16.jpg"," ","field","D","repeat"," ","348","","","","","",""
"","","","","","image-keyboard-response","401","2.0.0","429380","pt68as8ppoc","turtle","null","stimuli/street_27.jpg","null","street","E","non-repeat","null","349","stimuli/street_27.jpg","","","","",""
"","","","","","image-keyboard-response","402","2.0.0","430383","pt68as8ppoc","turtle","null","stimuli/coast_66.jpg","null","coast","F","non-repeat","null","350","stimuli/coast_66.jpg","","","","",""
"","","","","","image-keyboard-response","403","2.0.0","431387","pt68as8ppoc","turtle","null","stimuli/stream_16.jpg","null","stream","A","non-repeat","null","351","stimuli/stream_16.jpg","","","","",""
"","","","","","image-keyboard-response","404","2.0.0","432390","pt68as8ppoc","turtle","null","stimuli/kitchen_12.jpg","null","kitchen","B","non-repeat","null","352","stimuli/kitchen_12.jpg","","","","",""
"","","","","","image-keyboard-response","405","2.0.0","433397","pt68as8ppoc","turtle","null","stimuli/bathroom_30.jpg","null","bathroom","C","non-repeat","null","353","stimuli/bathroom_30.jpg","","","","",""
"","","","","","image-keyboard-response","406","2.0.0","434400","pt68as8ppoc","turtle","360","stimuli/bathroom_30.jpg"," ","bathroom","C","repeat"," ","353","","","","","",""
"","","","","","image-keyboard-response","407","2.0.0","435404","pt68as8ppoc","turtle","null","stimuli/field_16.jpg","null","field","D","non-repeat","null","354","stimuli/field_16.jpg","","","","",""
"","","","","","image-keyboard-response","408","2.0.0","436408","pt68as8ppoc","turtle","null","stimuli/street_27.jpg","null","street","E","non-repeat","null","355","stimuli/street_27.jpg","","","","",""
"","","","","","image-keyboard-response","409","2.0.0","437413","pt68as8ppoc","turtle","null","stimuli/coast_66.jpg","null","coast","F","non-repeat","null","356","stimuli/coast_66.jpg","","","","",""
"","","","","","image-keyboard-response","410","2.0.0","438417","pt68as8ppoc","turtle","805","stimuli/coast_66.jpg"," ","coast","F","repeat"," ","356","","","","","",""
"","","","","","image-keyboard-response","411","2.0.0","439421","pt68as8ppoc","turtle","null","stimuli/stream_16.jpg","null","stream","A","non-repeat","null","357","stimuli/stream_16.jpg","","","","",""
"","","","","","image-keyboard-response","412","2.0.0","440425","pt68as8ppoc","turtle","null","stimuli/kitchen_12.jpg","null","kitchen","B","non-repeat","null","358","stimuli/kitchen_12.jpg","","","","",""
"","","","","","image-keyboard-response","413","2.0.0","441430","pt68as8ppoc","turtle","null","stimuli/bathroom_30.jpg","null","bathroom","C","non-repeat","null","359","stimuli/bathroom_30.jpg","","","","",""
"","","","","","image-keyboard-response","414","2.0.0","442433","pt68as8ppoc","turtle","400","stimuli/bathroom_30.jpg"," ","bathroom","C","repeat"," ","359","","","","","",""
"","","","","","image-keyboard-response","415","2.0.0","443438","pt68as8ppoc","turtle","null","stimuli/woods_45.jpg","null","woods","G","non-repeat","null","360","stimuli/woods_45.jpg","","","","",""
"","","","","","image-keyboard-response","416","2.0.0","444442","pt68as8ppoc","turtle","363","stimuli/woods_45.jpg"," ","woods","G","repeat"," ","360","","","","","",""
"","","","","","image-keyboard-response","417","2.0.0","445446","pt68as8ppoc","turtle","null","stimuli/playground_50.jpg","null","playground","H","non-repeat","null","361","stimuli/playground_50.jpg","","","","",""
"","","","","","image-keyboard-response","418","2.0.0","446450","pt68as8ppoc","turtle","null","stimuli/gym_9.jpg","null","gym","I","non-repeat","null","362","stimuli/gym_9.jpg","","","","",""
"","","","","","image-keyboard-response","419","2.0.0","447454","pt68as8ppoc","turtle","300","stimuli/gym_9.jpg"," ","gym","I","repeat"," ","362","","","","","",""
"","","","","","image-keyboard-response","420","2.0.0","448458","pt68as8ppoc","turtle","null","stimuli/stream_16.jpg","null","stream","A","non-repeat","null","363","stimuli/stream_16.jpg","","","","",""
"","","","","","image-keyboard-response","421","2.0.0","449462","pt68as8ppoc","turtle","null","stimuli/kitchen_12.jpg","null","kitchen","B","non-repeat","null","364","stimuli/kitchen_12.jpg","","","","",""
"","","","","","image-keyboard-response","422","2.0.0","450465","pt68as8ppoc","turtle","null","stimuli/bathroom_30.jpg","null","bathroom","C","non-repeat","null","365","stimuli/bathroom_30.jpg","","","","",""
"","","","","","image-keyboard-response","423","2.0.0","451469","pt68as8ppoc","turtle","null","stimuli/bar_7.jpg","null","bar","J","non-repeat","null","366","stimuli/bar_7.jpg","","","","",""
"","","","","","image-keyboard-response","424","2.0.0","452473","pt68as8ppoc","turtle","null","stimuli/desert_21.jpg","null","desert","K","non-repeat","null","367","stimuli/desert_21.jpg","","","","",""
"","","","","","image-keyboard-response","425","2.0.0","453478","pt68as8ppoc","turtle","null","stimuli/bridge_1.jpg","null","bridge","L","non-repeat","null","368","stimuli/bridge_1.jpg","","","","",""
"","","","","","image-keyboard-response","426","2.0.0","454482","pt68as8ppoc","turtle","null","stimuli/woods_45.jpg","null","woods","G","non-repeat","null","369","stimuli/woods_45.jpg","","","","",""
"","","","","","image-keyboard-response","427","2.0.0","455486","pt68as8ppoc","turtle","354","stimuli/woods_45.jpg"," ","woods","G","repeat"," ","369","","","","","",""
"","","","","","image-keyboard-response","428","2.0.0","456489","pt68as8ppoc","turtle","null","stimuli/playground_50.jpg","null","playground","H","non-repeat","null","370","stimuli/playground_50.jpg","","","","",""
"","","","","","image-keyboard-response","429","2.0.0","457493","pt68as8ppoc","turtle","null","stimuli/gym_9.jpg","null","gym","I","non-repeat","null","371","stimuli/gym_9.jpg","","","","",""
"","","","","","image-keyboard-response","430","2.0.0","458497","pt68as8ppoc","turtle","null","stimuli/field_16.jpg","null","field","D","non-repeat","null","372","stimuli/field_16.jpg","","","","",""
"","","","","","image-keyboard-response","431","2.0.0","459500","pt68as8ppoc","turtle","null","stimuli/street_27.jpg","null","street","E","non-repeat","null","373","stimuli/street_27.jpg","","","","",""
"","","","","","image-keyboard-response","432","2.0.0","460504","pt68as8ppoc","turtle","null","stimuli/coast_66.jpg","null","coast","F","non-repeat","null","374","stimuli/coast_66.jpg","","","","",""
"","","","","","image-keyboard-response","433","2.0.0","461506","pt68as8ppoc","turtle","null","stimuli/bar_7.jpg","null","bar","J","non-repeat","null","375","stimuli/bar_7.jpg","","","","",""
"","","","","","image-keyboard-response","434","2.0.0","462510","pt68as8ppoc","turtle","null","stimuli/desert_21.jpg","null","desert","K","non-repeat","null","376","stimuli/desert_21.jpg","","","","",""
"","","","","","image-keyboard-response","435","2.0.0","463514","pt68as8ppoc","turtle","null","stimuli/bridge_1.jpg","null","bridge","L","non-repeat","null","377","stimuli/bridge_1.jpg","","","","",""
"","","","","","image-keyboard-response","436","2.0.0","464518","pt68as8ppoc","turtle","null","stimuli/stream_16.jpg","null","stream","A","non-repeat","null","378","stimuli/stream_16.jpg","","","","",""
"","","","","","image-keyboard-response","437","2.0.0","465521","pt68as8ppoc","turtle","395","stimuli/stream_16.jpg"," ","stream","A","repeat"," ","378","","","","","",""
"","","","","","image-keyboard-response","438","2.0.0","466526","pt68as8ppoc","turtle","null","stimuli/kitchen_12.jpg","null","kitchen","B","non-repeat","null","379","stimuli/kitchen_12.jpg","","","","",""
"","","","","","image-keyboard-response","439","2.0.0","467530","pt68as8ppoc","turtle","null","stimuli/bathroom_30.jpg","null","bathroom","C","non-repeat","null","380","stimuli/bathroom_30.jpg","","","","",""
"","","","","","image-keyboard-response","440","2.0.0","468535","pt68as8ppoc","turtle","null","stimuli/bar_7.jpg","null","bar","J","non-repeat","null","381","stimuli/bar_7.jpg","","","","",""
"","","","","","image-keyboard-response","441","2.0.0","469539","pt68as8ppoc","turtle","null","stimuli/desert_21.jpg","null","desert","K","non-repeat","null","382","stimuli/desert_21.jpg","","","","",""
"","","","","","image-keyboard-response","442","2.0.0","470543","pt68as8ppoc","turtle","null","stimuli/bridge_1.jpg","null","bridge","L","non-repeat","null","383","stimuli/bridge_1.jpg","","","","",""
"","","","","","html-keyboard-response","443","2.0.0","508089","pt68as8ppoc","turtle","37543","
    <div style='width:900px;margin: auto;'><p>In the next part of the experiment, we want to see how well you learned the structure in the stream of images.</p>
    <p>On each trial, you will see two sequences of three images, sequence 1 and 2. We will ask you to indicate which sequence was more familiar based on the first part of the experiment.</p>
    <p>Press 1 if the first sequence (sequence 1) felt more familiar. Press 2 if the second sequence (sequence 2) felt more familiar.</p>
    <p>Press any key to begin.</p></div>"," ","","","","","","","","","","",""
"","","","","","html-keyboard-response","444","2.0.0","509091","pt68as8ppoc","turtle","null","<p>Sequence 1</p>","null","","","","","","","","","","",""
"","","","","","image-keyboard-response","445","2.0.0","510094","pt68as8ppoc","turtle","null","stimuli/field_16.jpg","null","","","","","","","","","","",""
"","","","","","image-keyboard-response","446","2.0.0","511098","pt68as8ppoc","turtle","null","stimuli/street_27.jpg","null","","","","","","","","","","",""
"","","","","","image-keyboard-response","447","2.0.0","512102","pt68as8ppoc","turtle","null","stimuli/coast_66.jpg","null","","","","","","","","","","",""
"","","","","","html-keyboard-response","448","2.0.0","513104","pt68as8ppoc","turtle","null","<p></p>","null","","","","","","","","","","",""
"","","","","","html-keyboard-response","449","2.0.0","514106","pt68as8ppoc","turtle","null","<p>Sequence 2</p>","null","","","","","","","","","","",""
"","","","","","image-keyboard-response","450","2.0.0","515111","pt68as8ppoc","turtle","null","stimuli/bar_7.jpg","null","","","","","","","","","","",""
"","","","","","image-keyboard-response","451","2.0.0","516115","pt68as8ppoc","turtle","null","stimuli/kitchen_12.jpg","null","","","","","","","","","","",""
"","","","","","image-keyboard-response","452","2.0.0","517119","pt68as8ppoc","turtle","null","stimuli/coast_66.jpg","null","","","","","","","","","","",""
"","","","","","html-keyboard-response","453","2.0.0","518626","pt68as8ppoc","turtle","1505","<p>Press '1' if the first sequence was familiar, '2' if the second was.</p>","1","","","1","","","","[""D"",""E"",""F""]","[""J"",""B"",""F""]","true","[""<p>Sequence 1</p>"",""stimuli/field_16.jpg"",""stimuli/street_27.jpg"",""stimuli/coast_66.jpg""]","[""<p>Sequence 2</p>"",""stimuli/bar_7.jpg"",""stimuli/kitchen_12.jpg"",""stimuli/coast_66.jpg""]"
"","","","","","html-keyboard-response","454","2.0.0","519629","pt68as8ppoc","turtle","null","<p>Sequence 1</p>","null","","","","","","","","","","",""
"","","","","","image-keyboard-response","455","2.0.0","520633","pt68as8ppoc","turtle","null","stimuli/stream_16.jpg","null","","","","","","","","","","",""
"","","","","","image-keyboard-response","456","2.0.0","521636","pt68as8ppoc","turtle","null","stimuli/kitchen_12.jpg","null","","","","","","","","","","",""
"","","","","","image-keyboard-response","457","2.0.0","522640","pt68as8ppoc","turtle","null","stimuli/bathroom_30.jpg","null","","","","","","","","","","",""
"","","","","","html-keyboard-response","458","2.0.0","523642","pt68as8ppoc","turtle","null","<p></p>","null","","","","","","","","","","",""
"","","","","","html-keyboard-response","459","2.0.0","524646","pt68as8ppoc","turtle","null","<p>Sequence 2</p>","null","","","","","","","","","","",""
"","","","","","image-keyboard-response","460","2.0.0","525650","pt68as8ppoc","turtle","null","stimuli/woods_45.jpg","null","","","","","","","","","","",""
"","","","","","image-keyboard-response","461","2.0.0","526654","pt68as8ppoc","turtle","null","stimuli/desert_21.jpg","null","","","","","","","","","","",""
"","","","","","image-keyboard-response","462","2.0.0","527658","pt68as8ppoc","turtle","null","stimuli/bathroom_30.jpg","null","","","","","","","","","","",""
"","","","","","html-keyboard-response","463","2.0.0","528277","pt68as8ppoc","turtle","618","<p>Press '1' if the first sequence was familiar, '2' if the second was.</p>","1","","","1","","","","[""A"",""B"",""C""]","[""G"",""K"",""C""]","true","[""<p>Sequence 1</p>"",""stimuli/stream_16.jpg"",""stimuli/kitchen_12.jpg"",""stimuli/bathroom_30.jpg""]","[""<p>Sequence 2</p>"",""stimuli/woods_45.jpg"",""stimuli/desert_21.jpg"",""stimuli/bathroom_30.jpg""]"
"","","","","","html-keyboard-response","464","2.0.0","529280","pt68as8ppoc","turtle","null","<p>Sequence 1</p>","null","","","","","","","","","","",""
"","","","","","image-keyboard-response","465","2.0.0","530284","pt68as8ppoc","turtle","null","stimuli/bar_7.jpg","null","","","","","","","","","","",""
"","","","","","image-keyboard-response","466","2.0.0","531287","pt68as8ppoc","turtle","null","stimuli/desert_21.jpg","null","","","","","","","","","","",""
"","","","","","image-keyboard-response","467","2.0.0","532291","pt68as8ppoc","turtle","null","stimuli/bridge_1.jpg","null","","","","","","","","","","",""
"","","","","","html-keyboard-response","468","2.0.0","533293","pt68as8ppoc","turtle","null","<p></p>","null","","","","","","","","","","",""
"","","","","","html-keyboard-response","469","2.0.0","534296","pt68as8ppoc","turtle","null","<p>Sequence 2</p>","null","","","","","","","","","","",""
"","","","","","image-keyboard-response","470","2.0.0","535301","pt68as8ppoc","turtle","null","stimuli/field_16.jpg","null","","","","","","","","","","",""
"","","","","","image-keyboard-response","471","2.0.0","536304","pt68as8ppoc","turtle","null","stimuli/playground_50.jpg","null","","","","","","","","","","",""
"","","","","","image-keyboard-response","472","2.0.0","537307","pt68as8ppoc","turtle","null","stimuli/bridge_1.jpg","null","","","","","","","","","","",""
"","","","","","html-keyboard-response","473","2.0.0","537587","pt68as8ppoc","turtle","278","<p>Press '1' if the first sequence was familiar, '2' if the second was.</p>","1","","","1","","","","[""J"",""K"",""L""]","[""D"",""H"",""L""]","true","[""<p>Sequence 1</p>"",""stimuli/bar_7.jpg"",""stimuli/desert_21.jpg"",""stimuli/bridge_1.jpg""]","[""<p>Sequence 2</p>"",""stimuli/field_16.jpg"",""stimuli/playground_50.jpg"",""stimuli/bridge_1.jpg""]"
"","","","","","html-keyboard-response","474","2.0.0","538590","pt68as8ppoc","turtle","null","<p>Sequence 1</p>","null","","","","","","","","","","",""
"","","","","","image-keyboard-response","475","2.0.0","539594","pt68as8ppoc","turtle","null","stimuli/field_16.jpg","null","","","","","","","","","","",""
"","","","","","image-keyboard-response","476","2.0.0","540598","pt68as8ppoc","turtle","null","stimuli/playground_50.jpg","null","","","","","","","","","","",""
"","","","","","image-keyboard-response","477","2.0.0","541602","pt68as8ppoc","turtle","null","stimuli/bridge_1.jpg","null","","","","","","","","","","",""
"","","","","","html-keyboard-response","478","2.0.0","542605","pt68as8ppoc","turtle","null","<p></p>","null","","","","","","","","","","",""
"","","","","","html-keyboard-response","479","2.0.0","543608","pt68as8ppoc","turtle","null","<p>Sequence 2</p>","null","","","","","","","","","","",""
"","","","","","image-keyboard-response","480","2.0.0","544612","pt68as8ppoc","turtle","null","stimuli/stream_16.jpg","null","","","","","","","","","","",""
"","","","","","image-keyboard-response","481","2.0.0","545616","pt68as8ppoc","turtle","null","stimuli/kitchen_12.jpg","null","","","","","","","","","","",""
"","","","","","image-keyboard-response","482","2.0.0","546620","pt68as8ppoc","turtle","null","stimuli/bathroom_30.jpg","null","","","","","","","","","","",""
"","","","","","html-keyboard-response","483","2.0.0","546889","pt68as8ppoc","turtle","267","<p>Press '1' if the first sequence was familiar, '2' if the second was.</p>","2","","","2","","","","[""A"",""B"",""C""]","[""D"",""H"",""L""]","true","[""<p>Sequence 1</p>"",""stimuli/field_16.jpg"",""stimuli/playground_50.jpg"",""stimuli/bridge_1.jpg""]","[""<p>Sequence 2</p>"",""stimuli/stream_16.jpg"",""stimuli/kitchen_12.jpg"",""stimuli/bathroom_30.jpg""]"
"","","","","","html-keyboard-response","484","2.0.0","547891","pt68as8ppoc","turtle","null","<p>Sequence 1</p>","null","","","","","","","","","","",""
"","","","","","image-keyboard-response","485","2.0.0","548895","pt68as8ppoc","turtle","null","stimuli/bar_7.jpg","null","","","","","","","","","","",""
"","","","","","image-keyboard-response","486","2.0.0","549898","pt68as8ppoc","turtle","null","stimuli/kitchen_12.jpg","null","","","","","","","","","","",""
"","","","","","image-keyboard-response","487","2.0.0","550902","pt68as8ppoc","turtle","null","stimuli/coast_66.jpg","null","","","","","","","","","","",""
"","","","","","html-keyboard-response","488","2.0.0","551906","pt68as8ppoc","turtle","null","<p></p>","null","","","","","","","","","","",""
"","","","","","html-keyboard-response","489","2.0.0","552909","pt68as8ppoc","turtle","null","<p>Sequence 2</p>","null","","","","","","","","","","",""
"","","","","","image-keyboard-response","490","2.0.0","553913","pt68as8ppoc","turtle","null","stimuli/woods_45.jpg","null","","","","","","","","","","",""
"","","","","","image-keyboard-response","491","2.0.0","554917","pt68as8ppoc","turtle","null","stimuli/playground_50.jpg","null","","","","","","","","","","",""
"","","","","","image-keyboard-response","492","2.0.0","555921","pt68as8ppoc","turtle","null","stimuli/gym_9.jpg","null","","","","","","","","","","",""
"","","","","","html-keyboard-response","493","2.0.0","556523","pt68as8ppoc","turtle","601","<p>Press '1' if the first sequence was familiar, '2' if the second was.</p>","1","","","2","","","","[""G"",""H"",""I""]","[""J"",""B"",""F""]","false","[""<p>Sequence 1</p>"",""stimuli/bar_7.jpg"",""stimuli/kitchen_12.jpg"",""stimuli/coast_66.jpg""]","[""<p>Sequence 2</p>"",""stimuli/woods_45.jpg"",""stimuli/playground_50.jpg"",""stimuli/gym_9.jpg""]"
"","","","","","html-keyboard-response","494","2.0.0","557525","pt68as8ppoc","turtle","null","<p>Sequence 1</p>","null","","","","","","","","","","",""
"","","","","","image-keyboard-response","495","2.0.0","558529","pt68as8ppoc","turtle","null","stimuli/field_16.jpg","null","","","","","","","","","","",""
"","","","","","image-keyboard-response","496","2.0.0","559533","pt68as8ppoc","turtle","null","stimuli/street_27.jpg","null","","","","","","","","","","",""
"","","","","","image-keyboard-response","497","2.0.0","560536","pt68as8ppoc","turtle","null","stimuli/coast_66.jpg","null","","","","","","","","","","",""
"","","","","","html-keyboard-response","498","2.0.0","561538","pt68as8ppoc","turtle","null","<p></p>","null","","","","","","","","","","",""
"","","","","","html-keyboard-response","499","2.0.0","562541","pt68as8ppoc","turtle","null","<p>Sequence 2</p>","null","","","","","","","","","","",""
"","","","","","image-keyboard-response","500","2.0.0","563545","pt68as8ppoc","turtle","null","stimuli/stream_16.jpg","null","","","","","","","","","","",""
"","","","","","image-keyboard-response","501","2.0.0","564548","pt68as8ppoc","turtle","null","stimuli/street_27.jpg","null","","","","","","","","","","",""
"","","","","","image-keyboard-response","502","2.0.0","565553","pt68as8ppoc","turtle","null","stimuli/gym_9.jpg","null","","","","","","","","","","",""
