"success","timeout","failed_images","failed_audio","failed_video","trial_type","trial_index","plugin_version","time_elapsed","random_id","participant","rt","stimulus","response","category","letter","correct_response","correct_response_key","trial_counter","current_image","test_triplet","foil_triplet","correct","firstSequencePaths","secondSequencePaths"
"true","false","[]","[]","[]","preload","0","2.0.0","367","pwnth7f2j08","seal","","","","","","","","","","","","","",""
"true","","","","","fullscreen","1","null","2356","pwnth7f2j08","seal","986","","","","","","","","","","","","",""
"","","","","","html-keyboard-response","2","2.0.0","3454","pwnth7f2j08","seal","1097","Welcome to the experiment. Press any key to begin."," ","","","","","","","","","","",""
"","","","","","survey-text","3","2.0.0","6592","pwnth7f2j08","seal","3136","","{""participant_id"":""seal""}","","","","","","","","","","",""
"","","","","","html-keyboard-response","4","2.0.0","12459","pwnth7f2j08","seal","5866","
  <p>For this trial, you will see a series of images.</p>
  <p><b>Press the spacebar whenever you see the same image appear twice in a row.</b></p>
  <p>In other words, whenever the same image repeats back to back, press the spacebar.</p>
  <p>Press any key to begin.</p>"," ","","","","","","","","","","",""
"","","","","","image-keyboard-response","5","2.0.0","13462","pwnth7f2j08","seal","null","stimuli/desert_58.jpg","null","desert","J","non-repeat","null","0","stimuli/desert_58.jpg","","","","",""
"","","","","","image-keyboard-response","6","2.0.0","14465","pwnth7f2j08","seal","null","stimuli/playground_24.jpg","null","playground","K","non-repeat","null","1","stimuli/playground_24.jpg","","","","",""
"","","","","","image-keyboard-response","7","2.0.0","15467","pwnth7f2j08","seal","null","stimuli/street_13.jpg","null","street","L","non-repeat","null","2","stimuli/street_13.jpg","","","","",""
"","","","","","image-keyboard-response","8","2.0.0","16469","pwnth7f2j08","seal","380","stimuli/street_13.jpg"," ","street","L","repeat"," ","2","","","","","",""
"","","","","","image-keyboard-response","9","2.0.0","17470","pwnth7f2j08","seal","null","stimuli/field_19.jpg","null","field","D","non-repeat","null","3","stimuli/field_19.jpg","","","","",""
"","","","","","image-keyboard-response","10","2.0.0","18471","pwnth7f2j08","seal","null","stimuli/woods_17.jpg","null","woods","E","non-repeat","null","4","stimuli/woods_17.jpg","","","","",""
"","","","","","image-keyboard-response","11","2.0.0","19474","pwnth7f2j08","seal","null","stimuli/bathroom_38.jpg","null","bathroom","F","non-repeat","null","5","stimuli/bathroom_38.jpg","","","","",""
"","","","","","image-keyboard-response","12","2.0.0","20476","pwnth7f2j08","seal","null","stimuli/coast_23.jpg","null","coast","A","non-repeat","null","6","stimuli/coast_23.jpg","","","","",""
"","","","","","image-keyboard-response","13","2.0.0","21477","pwnth7f2j08","seal","377","stimuli/coast_23.jpg"," ","coast","A","repeat"," ","6","","","","","",""
"","","","","","image-keyboard-response","14","2.0.0","22478","pwnth7f2j08","seal","null","stimuli/stream_36.jpg","null","stream","B","non-repeat","null","7","stimuli/stream_36.jpg","","","","",""
"","","","","","image-keyboard-response","15","2.0.0","23480","pwnth7f2j08","seal","null","stimuli/kitchen_23.jpg","null","kitchen","C","non-repeat","null","8","stimuli/kitchen_23.jpg","","","","",""
"","","","","","image-keyboard-response","16","2.0.0","24482","pwnth7f2j08","seal","null","stimuli/desert_58.jpg","null","desert","J","non-repeat","null","9","stimuli/desert_58.jpg","","","","",""
"","","","","","image-keyboard-response","17","2.0.0","25484","pwnth7f2j08","seal","null","stimuli/playground_24.jpg","null","playground","K","non-repeat","null","10","stimuli/playground_24.jpg","","","","",""
"","","","","","image-keyboard-response","18","2.0.0","26487","pwnth7f2j08","seal","null","stimuli/street_13.jpg","null","street","L","non-repeat","null","11","stimuli/street_13.jpg","","","","",""
"","","","","","image-keyboard-response","19","2.0.0","27488","pwnth7f2j08","seal","null","stimuli/coast_23.jpg","null","coast","A","non-repeat","null","12","stimuli/coast_23.jpg","","","","",""
"","","","","","image-keyboard-response","20","2.0.0","28490","pwnth7f2j08","seal","null","stimuli/stream_36.jpg","null","stream","B","non-repeat","null","13","stimuli/stream_36.jpg","","","","",""
"","","","","","image-keyboard-response","21","2.0.0","29493","pwnth7f2j08","seal","null","stimuli/kitchen_23.jpg","null","kitchen","C","non-repeat","null","14","stimuli/kitchen_23.jpg","","","","",""
"","","","","","image-keyboard-response","22","2.0.0","30496","pwnth7f2j08","seal","null","stimuli/field_19.jpg","null","field","D","non-repeat","null","15","stimuli/field_19.jpg","","","","",""
"","","","","","image-keyboard-response","23","2.0.0","31498","pwnth7f2j08","seal","394","stimuli/woods_17.jpg"," ","woods","E","non-repeat","null","16","stimuli/woods_17.jpg","","","","",""
"","","","","","image-keyboard-response","24","2.0.0","32500","pwnth7f2j08","seal","null","stimuli/bathroom_38.jpg","null","bathroom","F","non-repeat","null","17","stimuli/bathroom_38.jpg","","","","",""
"","","","","","image-keyboard-response","25","2.0.0","33502","pwnth7f2j08","seal","null","stimuli/desert_58.jpg","null","desert","J","non-repeat","null","18","stimuli/desert_58.jpg","","","","",""
"","","","","","image-keyboard-response","26","2.0.0","34503","pwnth7f2j08","seal","null","stimuli/playground_24.jpg","null","playground","K","non-repeat","null","19","stimuli/playground_24.jpg","","","","",""
"","","","","","image-keyboard-response","27","2.0.0","35506","pwnth7f2j08","seal","null","stimuli/street_13.jpg","null","street","L","non-repeat","null","20","stimuli/street_13.jpg","","","","",""
"","","","","","image-keyboard-response","28","2.0.0","36507","pwnth7f2j08","seal","null","stimuli/coast_23.jpg","null","coast","A","non-repeat","null","21","stimuli/coast_23.jpg","","","","",""
"","","","","","image-keyboard-response","29","2.0.0","37510","pwnth7f2j08","seal","null","stimuli/stream_36.jpg","null","stream","B","non-repeat","null","22","stimuli/stream_36.jpg","","","","",""
"","","","","","image-keyboard-response","30","2.0.0","38512","pwnth7f2j08","seal","null","stimuli/kitchen_23.jpg","null","kitchen","C","non-repeat","null","23","stimuli/kitchen_23.jpg","","","","",""
"","","","","","image-keyboard-response","31","2.0.0","39513","pwnth7f2j08","seal","null","stimuli/bridge_39.jpg","null","bridge","G","non-repeat","null","24","stimuli/bridge_39.jpg","","","","",""
"","","","","","image-keyboard-response","32","2.0.0","40516","pwnth7f2j08","seal","null","stimuli/gym_51.jpg","null","gym","H","non-repeat","null","25","stimuli/gym_51.jpg","","","","",""
"","","","","","image-keyboard-response","33","2.0.0","41518","pwnth7f2j08","seal","null","stimuli/bar_6.jpg","null","bar","I","non-repeat","null","26","stimuli/bar_6.jpg","","","","",""
"","","","","","image-keyboard-response","34","2.0.0","42520","pwnth7f2j08","seal","null","stimuli/desert_58.jpg","null","desert","J","non-repeat","null","27","stimuli/desert_58.jpg","","","","",""
"","","","","","image-keyboard-response","35","2.0.0","43523","pwnth7f2j08","seal","null","stimuli/playground_24.jpg","null","playground","K","non-repeat","null","28","stimuli/playground_24.jpg","","","","",""
"","","","","","image-keyboard-response","36","2.0.0","44525","pwnth7f2j08","seal","null","stimuli/street_13.jpg","null","street","L","non-repeat","null","29","stimuli/street_13.jpg","","","","",""
"","","","","","image-keyboard-response","37","2.0.0","45526","pwnth7f2j08","seal","null","stimuli/bridge_39.jpg","null","bridge","G","non-repeat","null","30","stimuli/bridge_39.jpg","","","","",""
"","","","","","image-keyboard-response","38","2.0.0","46528","pwnth7f2j08","seal","null","stimuli/gym_51.jpg","null","gym","H","non-repeat","null","31","stimuli/gym_51.jpg","","","","",""
"","","","","","image-keyboard-response","39","2.0.0","47531","pwnth7f2j08","seal","null","stimuli/bar_6.jpg","null","bar","I","non-repeat","null","32","stimuli/bar_6.jpg","","","","",""
"","","","","","image-keyboard-response","40","2.0.0","48534","pwnth7f2j08","seal","null","stimuli/coast_23.jpg","null","coast","A","non-repeat","null","33","stimuli/coast_23.jpg","","","","",""
"","","","","","image-keyboard-response","41","2.0.0","49538","pwnth7f2j08","seal","null","stimuli/stream_36.jpg","null","stream","B","non-repeat","null","34","stimuli/stream_36.jpg","","","","",""
"","","","","","image-keyboard-response","42","2.0.0","50541","pwnth7f2j08","seal","null","stimuli/kitchen_23.jpg","null","kitchen","C","non-repeat","null","35","stimuli/kitchen_23.jpg","","","","",""
"","","","","","image-keyboard-response","43","2.0.0","51544","pwnth7f2j08","seal","607","stimuli/kitchen_23.jpg"," ","kitchen","C","repeat"," ","35","","","","","",""
"","","","","","image-keyboard-response","44","2.0.0","52547","pwnth7f2j08","seal","null","stimuli/bridge_39.jpg","null","bridge","G","non-repeat","null","36","stimuli/bridge_39.jpg","","","","",""
"","","","","","image-keyboard-response","45","2.0.0","53550","pwnth7f2j08","seal","624","stimuli/bridge_39.jpg"," ","bridge","G","repeat"," ","36","","","","","",""
"","","","","","image-keyboard-response","46","2.0.0","54553","pwnth7f2j08","seal","null","stimuli/gym_51.jpg","null","gym","H","non-repeat","null","37","stimuli/gym_51.jpg","","","","",""
"","","","","","image-keyboard-response","47","2.0.0","55555","pwnth7f2j08","seal","null","stimuli/bar_6.jpg","null","bar","I","non-repeat","null","38","stimuli/bar_6.jpg","","","","",""
"","","","","","image-keyboard-response","48","2.0.0","56557","pwnth7f2j08","seal","null","stimuli/coast_23.jpg","null","coast","A","non-repeat","null","39","stimuli/coast_23.jpg","","","","",""
"","","","","","image-keyboard-response","49","2.0.0","57559","pwnth7f2j08","seal","null","stimuli/stream_36.jpg","null","stream","B","non-repeat","null","40","stimuli/stream_36.jpg","","","","",""
"","","","","","image-keyboard-response","50","2.0.0","58562","pwnth7f2j08","seal","null","stimuli/kitchen_23.jpg","null","kitchen","C","non-repeat","null","41","stimuli/kitchen_23.jpg","","","","",""
"","","","","","image-keyboard-response","51","2.0.0","59565","pwnth7f2j08","seal","null","stimuli/desert_58.jpg","null","desert","J","non-repeat","null","42","stimuli/desert_58.jpg","","","","",""
"","","","","","image-keyboard-response","52","2.0.0","60567","pwnth7f2j08","seal","383","stimuli/desert_58.jpg"," ","desert","J","repeat"," ","42","","","","","",""
"","","","","","image-keyboard-response","53","2.0.0","61569","pwnth7f2j08","seal","null","stimuli/playground_24.jpg","null","playground","K","non-repeat","null","43","stimuli/playground_24.jpg","","","","",""
"","","","","","image-keyboard-response","54","2.0.0","62572","pwnth7f2j08","seal","null","stimuli/street_13.jpg","null","street","L","non-repeat","null","44","stimuli/street_13.jpg","","","","",""
"","","","","","image-keyboard-response","55","2.0.0","63575","pwnth7f2j08","seal","null","stimuli/field_19.jpg","null","field","D","non-repeat","null","45","stimuli/field_19.jpg","","","","",""
"","","","","","image-keyboard-response","56","2.0.0","64577","pwnth7f2j08","seal","null","stimuli/woods_17.jpg","null","woods","E","non-repeat","null","46","stimuli/woods_17.jpg","","","","",""
"","","","","","image-keyboard-response","57","2.0.0","65580","pwnth7f2j08","seal","null","stimuli/bathroom_38.jpg","null","bathroom","F","non-repeat","null","47","stimuli/bathroom_38.jpg","","","","",""
"","","","","","image-keyboard-response","58","2.0.0","66583","pwnth7f2j08","seal","null","stimuli/coast_23.jpg","null","coast","A","non-repeat","null","48","stimuli/coast_23.jpg","","","","",""
"","","","","","image-keyboard-response","59","2.0.0","67585","pwnth7f2j08","seal","null","stimuli/stream_36.jpg","null","stream","B","non-repeat","null","49","stimuli/stream_36.jpg","","","","",""
"","","","","","image-keyboard-response","60","2.0.0","68588","pwnth7f2j08","seal","null","stimuli/kitchen_23.jpg","null","kitchen","C","non-repeat","null","50","stimuli/kitchen_23.jpg","","","","",""
"","","","","","image-keyboard-response","61","2.0.0","69589","pwnth7f2j08","seal","null","stimuli/field_19.jpg","null","field","D","non-repeat","null","51","stimuli/field_19.jpg","","","","",""
"","","","","","image-keyboard-response","62","2.0.0","70592","pwnth7f2j08","seal","573","stimuli/field_19.jpg"," ","field","D","repeat"," ","51","","","","","",""
"","","","","","image-keyboard-response","63","2.0.0","71594","pwnth7f2j08","seal","null","stimuli/woods_17.jpg","null","woods","E","non-repeat","null","52","stimuli/woods_17.jpg","","","","",""
"","","","","","image-keyboard-response","64","2.0.0","72595","pwnth7f2j08","seal","null","stimuli/bathroom_38.jpg","null","bathroom","F","non-repeat","null","53","stimuli/bathroom_38.jpg","","","","",""
"","","","","","image-keyboard-response","65","2.0.0","73598","pwnth7f2j08","seal","null","stimuli/bathroom_38.jpg","null","bathroom","F","repeat"," ","53","","","","","",""
"","","","","","image-keyboard-response","66","2.0.0","74600","pwnth7f2j08","seal","null","stimuli/desert_58.jpg","null","desert","J","non-repeat","null","54","stimuli/desert_58.jpg","","","","",""
"","","","","","image-keyboard-response","67","2.0.0","75603","pwnth7f2j08","seal","null","stimuli/playground_24.jpg","null","playground","K","non-repeat","null","55","stimuli/playground_24.jpg","","","","",""
"","","","","","image-keyboard-response","68","2.0.0","76605","pwnth7f2j08","seal","null","stimuli/street_13.jpg","null","street","L","non-repeat","null","56","stimuli/street_13.jpg","","","","",""
"","","","","","image-keyboard-response","69","2.0.0","77607","pwnth7f2j08","seal","null","stimuli/bridge_39.jpg","null","bridge","G","non-repeat","null","57","stimuli/bridge_39.jpg","","","","",""
"","","","","","image-keyboard-response","70","2.0.0","78610","pwnth7f2j08","seal","null","stimuli/gym_51.jpg","null","gym","H","non-repeat","null","58","stimuli/gym_51.jpg","","","","",""
"","","","","","image-keyboard-response","71","2.0.0","79613","pwnth7f2j08","seal","null","stimuli/bar_6.jpg","null","bar","I","non-repeat","null","59","stimuli/bar_6.jpg","","","","",""
"","","","","","image-keyboard-response","72","2.0.0","80615","pwnth7f2j08","seal","null","stimuli/desert_58.jpg","null","desert","J","non-repeat","null","60","stimuli/desert_58.jpg","","","","",""
"","","","","","image-keyboard-response","73","2.0.0","81618","pwnth7f2j08","seal","640","stimuli/desert_58.jpg"," ","desert","J","repeat"," ","60","","","","","",""
"","","","","","image-keyboard-response","74","2.0.0","82622","pwnth7f2j08","seal","null","stimuli/playground_24.jpg","null","playground","K","non-repeat","null","61","stimuli/playground_24.jpg","","","","",""
"","","","","","image-keyboard-response","75","2.0.0","83624","pwnth7f2j08","seal","null","stimuli/street_13.jpg","null","street","L","non-repeat","null","62","stimuli/street_13.jpg","","","","",""
"","","","","","image-keyboard-response","76","2.0.0","84626","pwnth7f2j08","seal","null","stimuli/bridge_39.jpg","null","bridge","G","non-repeat","null","63","stimuli/bridge_39.jpg","","","","",""
"","","","","","image-keyboard-response","77","2.0.0","85628","pwnth7f2j08","seal","null","stimuli/gym_51.jpg","null","gym","H","non-repeat","null","64","stimuli/gym_51.jpg","","","","",""
"","","","","","image-keyboard-response","78","2.0.0","86631","pwnth7f2j08","seal","null","stimuli/bar_6.jpg","null","bar","I","non-repeat","null","65","stimuli/bar_6.jpg","","","","",""
"","","","","","image-keyboard-response","79","2.0.0","87633","pwnth7f2j08","seal","641","stimuli/bar_6.jpg"," ","bar","I","repeat"," ","65","","","","","",""
"","","","","","image-keyboard-response","80","2.0.0","88636","pwnth7f2j08","seal","null","stimuli/field_19.jpg","null","field","D","non-repeat","null","66","stimuli/field_19.jpg","","","","",""
"","","","","","image-keyboard-response","81","2.0.0","89639","pwnth7f2j08","seal","null","stimuli/woods_17.jpg","null","woods","E","non-repeat","null","67","stimuli/woods_17.jpg","","","","",""
"","","","","","image-keyboard-response","82","2.0.0","90641","pwnth7f2j08","seal","null","stimuli/bathroom_38.jpg","null","bathroom","F","non-repeat","null","68","stimuli/bathroom_38.jpg","","","","",""
"","","","","","image-keyboard-response","83","2.0.0","91644","pwnth7f2j08","seal","596","stimuli/bathroom_38.jpg"," ","bathroom","F","repeat"," ","68","","","","","",""
"","","","","","image-keyboard-response","84","2.0.0","92647","pwnth7f2j08","seal","null","stimuli/bridge_39.jpg","null","bridge","G","non-repeat","null","69","stimuli/bridge_39.jpg","","","","",""
"","","","","","image-keyboard-response","85","2.0.0","93649","pwnth7f2j08","seal","null","stimuli/bridge_39.jpg","null","bridge","G","repeat"," ","69","","","","","",""
"","","","","","image-keyboard-response","86","2.0.0","94653","pwnth7f2j08","seal","null","stimuli/gym_51.jpg","null","gym","H","non-repeat","null","70","stimuli/gym_51.jpg","","","","",""
"","","","","","image-keyboard-response","87","2.0.0","95655","pwnth7f2j08","seal","null","stimuli/bar_6.jpg","null","bar","I","non-repeat","null","71","stimuli/bar_6.jpg","","","","",""
"","","","","","image-keyboard-response","88","2.0.0","96657","pwnth7f2j08","seal","null","stimuli/desert_58.jpg","null","desert","J","non-repeat","null","72","stimuli/desert_58.jpg","","","","",""
"","","","","","image-keyboard-response","89","2.0.0","97659","pwnth7f2j08","seal","null","stimuli/playground_24.jpg","null","playground","K","non-repeat","null","73","stimuli/playground_24.jpg","","","","",""
"","","","","","image-keyboard-response","90","2.0.0","98661","pwnth7f2j08","seal","null","stimuli/street_13.jpg","null","street","L","non-repeat","null","74","stimuli/street_13.jpg","","","","",""
"","","","","","image-keyboard-response","91","2.0.0","99663","pwnth7f2j08","seal","null","stimuli/bridge_39.jpg","null","bridge","G","non-repeat","null","75","stimuli/bridge_39.jpg","","","","",""
"","","","","","image-keyboard-response","92","2.0.0","100666","pwnth7f2j08","seal","593","stimuli/bridge_39.jpg"," ","bridge","G","repeat"," ","75","","","","","",""
"","","","","","image-keyboard-response","93","2.0.0","101669","pwnth7f2j08","seal","null","stimuli/gym_51.jpg","null","gym","H","non-repeat","null","76","stimuli/gym_51.jpg","","","","",""
"","","","","","image-keyboard-response","94","2.0.0","102672","pwnth7f2j08","seal","null","stimuli/bar_6.jpg","null","bar","I","non-repeat","null","77","stimuli/bar_6.jpg","","","","",""
"","","","","","image-keyboard-response","95","2.0.0","103674","pwnth7f2j08","seal","null","stimuli/field_19.jpg","null","field","D","non-repeat","null","78","stimuli/field_19.jpg","","","","",""
"","","","","","image-keyboard-response","96","2.0.0","104676","pwnth7f2j08","seal","560","stimuli/field_19.jpg"," ","field","D","repeat"," ","78","","","","","",""
"","","","","","image-keyboard-response","97","2.0.0","105679","pwnth7f2j08","seal","null","stimuli/woods_17.jpg","null","woods","E","non-repeat","null","79","stimuli/woods_17.jpg","","","","",""
"","","","","","image-keyboard-response","98","2.0.0","106682","pwnth7f2j08","seal","null","stimuli/bathroom_38.jpg","null","bathroom","F","non-repeat","null","80","stimuli/bathroom_38.jpg","","","","",""
"","","","","","image-keyboard-response","99","2.0.0","107684","pwnth7f2j08","seal","658","stimuli/bathroom_38.jpg"," ","bathroom","F","repeat"," ","80","","","","","",""
"","","","","","image-keyboard-response","100","2.0.0","108687","pwnth7f2j08","seal","null","stimuli/bridge_39.jpg","null","bridge","G","non-repeat","null","81","stimuli/bridge_39.jpg","","","","",""
"","","","","","image-keyboard-response","101","2.0.0","109689","pwnth7f2j08","seal","null","stimuli/gym_51.jpg","null","gym","H","non-repeat","null","82","stimuli/gym_51.jpg","","","","",""
"","","","","","image-keyboard-response","102","2.0.0","110692","pwnth7f2j08","seal","null","stimuli/bar_6.jpg","null","bar","I","non-repeat","null","83","stimuli/bar_6.jpg","","","","",""
"","","","","","image-keyboard-response","103","2.0.0","111695","pwnth7f2j08","seal","null","stimuli/desert_58.jpg","null","desert","J","non-repeat","null","84","stimuli/desert_58.jpg","","","","",""
"","","","","","image-keyboard-response","104","2.0.0","112698","pwnth7f2j08","seal","null","stimuli/playground_24.jpg","null","playground","K","non-repeat","null","85","stimuli/playground_24.jpg","","","","",""
"","","","","","image-keyboard-response","105","2.0.0","113700","pwnth7f2j08","seal","null","stimuli/street_13.jpg","null","street","L","non-repeat","null","86","stimuli/street_13.jpg","","","","",""
"","","","","","image-keyboard-response","106","2.0.0","114703","pwnth7f2j08","seal","null","stimuli/bridge_39.jpg","null","bridge","G","non-repeat","null","87","stimuli/bridge_39.jpg","","","","",""
"","","","","","image-keyboard-response","107","2.0.0","115713","pwnth7f2j08","seal","null","stimuli/gym_51.jpg","null","gym","H","non-repeat","null","88","stimuli/gym_51.jpg","","","","",""
"","","","","","image-keyboard-response","108","2.0.0","116715","pwnth7f2j08","seal","null","stimuli/bar_6.jpg","null","bar","I","non-repeat","null","89","stimuli/bar_6.jpg","","","","",""
"","","","","","image-keyboard-response","109","2.0.0","117718","pwnth7f2j08","seal","820","stimuli/bar_6.jpg"," ","bar","I","repeat"," ","89","","","","","",""
"","","","","","image-keyboard-response","110","2.0.0","118721","pwnth7f2j08","seal","null","stimuli/desert_58.jpg","null","desert","J","non-repeat","null","90","stimuli/desert_58.jpg","","","","",""
"","","","","","image-keyboard-response","111","2.0.0","119722","pwnth7f2j08","seal","null","stimuli/playground_24.jpg","null","playground","K","non-repeat","null","91","stimuli/playground_24.jpg","","","","",""
"","","","","","image-keyboard-response","112","2.0.0","120724","pwnth7f2j08","seal","null","stimuli/street_13.jpg","null","street","L","non-repeat","null","92","stimuli/street_13.jpg","","","","",""
"","","","","","image-keyboard-response","113","2.0.0","121725","pwnth7f2j08","seal","null","stimuli/street_13.jpg","null","street","L","repeat"," ","92","","","","","",""
"","","","","","image-keyboard-response","114","2.0.0","122727","pwnth7f2j08","seal","null","stimuli/field_19.jpg","null","field","D","non-repeat","null","93","stimuli/field_19.jpg","","","","",""
"","","","","","image-keyboard-response","115","2.0.0","123729","pwnth7f2j08","seal","null","stimuli/woods_17.jpg","null","woods","E","non-repeat","null","94","stimuli/woods_17.jpg","","","","",""
"","","","","","image-keyboard-response","116","2.0.0","124731","pwnth7f2j08","seal","null","stimuli/bathroom_38.jpg","null","bathroom","F","non-repeat","null","95","stimuli/bathroom_38.jpg","","","","",""
"","","","","","image-keyboard-response","117","2.0.0","125733","pwnth7f2j08","seal","null","stimuli/bridge_39.jpg","null","bridge","G","non-repeat","null","96","stimuli/bridge_39.jpg","","","","",""
"","","","","","image-keyboard-response","118","2.0.0","126735","pwnth7f2j08","seal","null","stimuli/bridge_39.jpg","null","bridge","G","repeat"," ","96","","","","","",""
"","","","","","image-keyboard-response","119","2.0.0","127737","pwnth7f2j08","seal","null","stimuli/gym_51.jpg","null","gym","H","non-repeat","null","97","stimuli/gym_51.jpg","","","","",""
"","","","","","image-keyboard-response","120","2.0.0","128740","pwnth7f2j08","seal","null","stimuli/bar_6.jpg","null","bar","I","non-repeat","null","98","stimuli/bar_6.jpg","","","","",""
"","","","","","image-keyboard-response","121","2.0.0","129741","pwnth7f2j08","seal","null","stimuli/bar_6.jpg","null","bar","I","repeat"," ","98","","","","","",""
"","","","","","image-keyboard-response","122","2.0.0","130744","pwnth7f2j08","seal","null","stimuli/coast_23.jpg","null","coast","A","non-repeat","null","99","stimuli/coast_23.jpg","","","","",""
"","","","","","image-keyboard-response","123","2.0.0","131745","pwnth7f2j08","seal","778","stimuli/coast_23.jpg"," ","coast","A","repeat"," ","99","","","","","",""
"","","","","","image-keyboard-response","124","2.0.0","132748","pwnth7f2j08","seal","null","stimuli/stream_36.jpg","null","stream","B","non-repeat","null","100","stimuli/stream_36.jpg","","","","",""
"","","","","","image-keyboard-response","125","2.0.0","133750","pwnth7f2j08","seal","null","stimuli/kitchen_23.jpg","null","kitchen","C","non-repeat","null","101","stimuli/kitchen_23.jpg","","","","",""
"","","","","","image-keyboard-response","126","2.0.0","134753","pwnth7f2j08","seal","null","stimuli/bridge_39.jpg","null","bridge","G","non-repeat","null","102","stimuli/bridge_39.jpg","","","","",""
"","","","","","image-keyboard-response","127","2.0.0","135756","pwnth7f2j08","seal","null","stimuli/gym_51.jpg","null","gym","H","non-repeat","null","103","stimuli/gym_51.jpg","","","","",""
"","","","","","image-keyboard-response","128","2.0.0","136758","pwnth7f2j08","seal","null","stimuli/bar_6.jpg","null","bar","I","non-repeat","null","104","stimuli/bar_6.jpg","","","","",""
"","","","","","image-keyboard-response","129","2.0.0","137759","pwnth7f2j08","seal","null","stimuli/field_19.jpg","null","field","D","non-repeat","null","105","stimuli/field_19.jpg","","","","",""
"","","","","","image-keyboard-response","130","2.0.0","138761","pwnth7f2j08","seal","null","stimuli/woods_17.jpg","null","woods","E","non-repeat","null","106","stimuli/woods_17.jpg","","","","",""
"","","","","","image-keyboard-response","131","2.0.0","139763","pwnth7f2j08","seal","null","stimuli/bathroom_38.jpg","null","bathroom","F","non-repeat","null","107","stimuli/bathroom_38.jpg","","","","",""
"","","","","","image-keyboard-response","132","2.0.0","140766","pwnth7f2j08","seal","null","stimuli/coast_23.jpg","null","coast","A","non-repeat","null","108","stimuli/coast_23.jpg","","","","",""
"","","","","","image-keyboard-response","133","2.0.0","141768","pwnth7f2j08","seal","null","stimuli/stream_36.jpg","null","stream","B","non-repeat","null","109","stimuli/stream_36.jpg","","","","",""
"","","","","","image-keyboard-response","134","2.0.0","142769","pwnth7f2j08","seal","null","stimuli/kitchen_23.jpg","null","kitchen","C","non-repeat","null","110","stimuli/kitchen_23.jpg","","","","",""
"","","","","","image-keyboard-response","135","2.0.0","143771","pwnth7f2j08","seal","null","stimuli/desert_58.jpg","null","desert","J","non-repeat","null","111","stimuli/desert_58.jpg","","","","",""
"","","","","","image-keyboard-response","136","2.0.0","144774","pwnth7f2j08","seal","523","stimuli/desert_58.jpg"," ","desert","J","repeat"," ","111","","","","","",""
"","","","","","image-keyboard-response","137","2.0.0","145777","pwnth7f2j08","seal","null","stimuli/playground_24.jpg","null","playground","K","non-repeat","null","112","stimuli/playground_24.jpg","","","","",""
"","","","","","image-keyboard-response","138","2.0.0","146779","pwnth7f2j08","seal","null","stimuli/street_13.jpg","null","street","L","non-repeat","null","113","stimuli/street_13.jpg","","","","",""
"","","","","","image-keyboard-response","139","2.0.0","147782","pwnth7f2j08","seal","null","stimuli/coast_23.jpg","null","coast","A","non-repeat","null","114","stimuli/coast_23.jpg","","","","",""
"","","","","","image-keyboard-response","140","2.0.0","148784","pwnth7f2j08","seal","null","stimuli/stream_36.jpg","null","stream","B","non-repeat","null","115","stimuli/stream_36.jpg","","","","",""
"","","","","","image-keyboard-response","141","2.0.0","149786","pwnth7f2j08","seal","null","stimuli/kitchen_23.jpg","null","kitchen","C","non-repeat","null","116","stimuli/kitchen_23.jpg","","","","",""
"","","","","","image-keyboard-response","142","2.0.0","150789","pwnth7f2j08","seal","null","stimuli/field_19.jpg","null","field","D","non-repeat","null","117","stimuli/field_19.jpg","","","","",""
"","","","","","image-keyboard-response","143","2.0.0","151792","pwnth7f2j08","seal","null","stimuli/woods_17.jpg","null","woods","E","non-repeat","null","118","stimuli/woods_17.jpg","","","","",""
"","","","","","image-keyboard-response","144","2.0.0","152795","pwnth7f2j08","seal","null","stimuli/bathroom_38.jpg","null","bathroom","F","non-repeat","null","119","stimuli/bathroom_38.jpg","","","","",""
"","","","","","image-keyboard-response","145","2.0.0","153796","pwnth7f2j08","seal","null","stimuli/coast_23.jpg","null","coast","A","non-repeat","null","120","stimuli/coast_23.jpg","","","","",""
"","","","","","image-keyboard-response","146","2.0.0","154798","pwnth7f2j08","seal","null","stimuli/stream_36.jpg","null","stream","B","non-repeat","null","121","stimuli/stream_36.jpg","","","","",""
"","","","","","image-keyboard-response","147","2.0.0","155800","pwnth7f2j08","seal","null","stimuli/kitchen_23.jpg","null","kitchen","C","non-repeat","null","122","stimuli/kitchen_23.jpg","","","","",""
"","","","","","image-keyboard-response","148","2.0.0","156803","pwnth7f2j08","seal","null","stimuli/desert_58.jpg","null","desert","J","non-repeat","null","123","stimuli/desert_58.jpg","","","","",""
"","","","","","image-keyboard-response","149","2.0.0","157805","pwnth7f2j08","seal","null","stimuli/playground_24.jpg","null","playground","K","non-repeat","null","124","stimuli/playground_24.jpg","","","","",""
"","","","","","image-keyboard-response","150","2.0.0","158807","pwnth7f2j08","seal","null","stimuli/street_13.jpg","null","street","L","non-repeat","null","125","stimuli/street_13.jpg","","","","",""
"","","","","","image-keyboard-response","151","2.0.0","159810","pwnth7f2j08","seal","null","stimuli/field_19.jpg","null","field","D","non-repeat","null","126","stimuli/field_19.jpg","","","","",""
"","","","","","image-keyboard-response","152","2.0.0","160812","pwnth7f2j08","seal","null","stimuli/woods_17.jpg","null","woods","E","non-repeat","null","127","stimuli/woods_17.jpg","","","","",""
"","","","","","image-keyboard-response","153","2.0.0","161815","pwnth7f2j08","seal","null","stimuli/bathroom_38.jpg","null","bathroom","F","non-repeat","null","128","stimuli/bathroom_38.jpg","","","","",""
"","","","","","image-keyboard-response","154","2.0.0","162818","pwnth7f2j08","seal","null","stimuli/desert_58.jpg","null","desert","J","non-repeat","null","129","stimuli/desert_58.jpg","","","","",""
"","","","","","image-keyboard-response","155","2.0.0","163820","pwnth7f2j08","seal","null","stimuli/playground_24.jpg","null","playground","K","non-repeat","null","130","stimuli/playground_24.jpg","","","","",""
"","","","","","image-keyboard-response","156","2.0.0","164823","pwnth7f2j08","seal","null","stimuli/street_13.jpg","null","street","L","non-repeat","null","131","stimuli/street_13.jpg","","","","",""
"","","","","","image-keyboard-response","157","2.0.0","165825","pwnth7f2j08","seal","674","stimuli/street_13.jpg"," ","street","L","repeat"," ","131","","","","","",""
"","","","","","image-keyboard-response","158","2.0.0","166828","pwnth7f2j08","seal","null","stimuli/bridge_39.jpg","null","bridge","G","non-repeat","null","132","stimuli/bridge_39.jpg","","","","",""
"","","","","","image-keyboard-response","159","2.0.0","167830","pwnth7f2j08","seal","680","stimuli/bridge_39.jpg"," ","bridge","G","repeat"," ","132","","","","","",""
"","","","","","image-keyboard-response","160","2.0.0","168833","pwnth7f2j08","seal","null","stimuli/gym_51.jpg","null","gym","H","non-repeat","null","133","stimuli/gym_51.jpg","","","","",""
"","","","","","image-keyboard-response","161","2.0.0","169836","pwnth7f2j08","seal","null","stimuli/bar_6.jpg","null","bar","I","non-repeat","null","134","stimuli/bar_6.jpg","","","","",""
"","","","","","image-keyboard-response","162","2.0.0","170838","pwnth7f2j08","seal","null","stimuli/coast_23.jpg","null","coast","A","non-repeat","null","135","stimuli/coast_23.jpg","","","","",""
"","","","","","image-keyboard-response","163","2.0.0","171841","pwnth7f2j08","seal","null","stimuli/stream_36.jpg","null","stream","B","non-repeat","null","136","stimuli/stream_36.jpg","","","","",""
"","","","","","image-keyboard-response","164","2.0.0","172843","pwnth7f2j08","seal","null","stimuli/kitchen_23.jpg","null","kitchen","C","non-repeat","null","137","stimuli/kitchen_23.jpg","","","","",""
"","","","","","image-keyboard-response","165","2.0.0","173845","pwnth7f2j08","seal","null","stimuli/bridge_39.jpg","null","bridge","G","non-repeat","null","138","stimuli/bridge_39.jpg","","","","",""
"","","","","","image-keyboard-response","166","2.0.0","174847","pwnth7f2j08","seal","null","stimuli/gym_51.jpg","null","gym","H","non-repeat","null","139","stimuli/gym_51.jpg","","","","",""
"","","","","","image-keyboard-response","167","2.0.0","175850","pwnth7f2j08","seal","null","stimuli/bar_6.jpg","null","bar","I","non-repeat","null","140","stimuli/bar_6.jpg","","","","",""
"","","","","","image-keyboard-response","168","2.0.0","176852","pwnth7f2j08","seal","null","stimuli/field_19.jpg","null","field","D","non-repeat","null","141","stimuli/field_19.jpg","","","","",""
"","","","","","image-keyboard-response","169","2.0.0","177855","pwnth7f2j08","seal","680","stimuli/field_19.jpg"," ","field","D","repeat"," ","141","","","","","",""
"","","","","","image-keyboard-response","170","2.0.0","178858","pwnth7f2j08","seal","null","stimuli/woods_17.jpg","null","woods","E","non-repeat","null","142","stimuli/woods_17.jpg","","","","",""
"","","","","","image-keyboard-response","171","2.0.0","179861","pwnth7f2j08","seal","null","stimuli/bathroom_38.jpg","null","bathroom","F","non-repeat","null","143","stimuli/bathroom_38.jpg","","","","",""
"","","","","","image-keyboard-response","172","2.0.0","180864","pwnth7f2j08","seal","null","stimuli/bridge_39.jpg","null","bridge","G","non-repeat","null","144","stimuli/bridge_39.jpg","","","","",""
"","","","","","image-keyboard-response","173","2.0.0","181867","pwnth7f2j08","seal","null","stimuli/bridge_39.jpg","null","bridge","G","repeat"," ","144","","","","","",""
"","","","","","image-keyboard-response","174","2.0.0","182869","pwnth7f2j08","seal","null","stimuli/gym_51.jpg","null","gym","H","non-repeat","null","145","stimuli/gym_51.jpg","","","","",""
"","","","","","image-keyboard-response","175","2.0.0","183873","pwnth7f2j08","seal","null","stimuli/bar_6.jpg","null","bar","I","non-repeat","null","146","stimuli/bar_6.jpg","","","","",""
"","","","","","image-keyboard-response","176","2.0.0","184876","pwnth7f2j08","seal","null","stimuli/bar_6.jpg","null","bar","I","repeat"," ","146","","","","","",""
"","","","","","image-keyboard-response","177","2.0.0","185878","pwnth7f2j08","seal","null","stimuli/coast_23.jpg","null","coast","A","non-repeat","null","147","stimuli/coast_23.jpg","","","","",""
"","","","","","image-keyboard-response","178","2.0.0","186881","pwnth7f2j08","seal","null","stimuli/stream_36.jpg","null","stream","B","non-repeat","null","148","stimuli/stream_36.jpg","","","","",""
"","","","","","image-keyboard-response","179","2.0.0","187884","pwnth7f2j08","seal","null","stimuli/kitchen_23.jpg","null","kitchen","C","non-repeat","null","149","stimuli/kitchen_23.jpg","","","","",""
"","","","","","image-keyboard-response","180","2.0.0","188886","pwnth7f2j08","seal","null","stimuli/bridge_39.jpg","null","bridge","G","non-repeat","null","150","stimuli/bridge_39.jpg","","","","",""
"","","","","","image-keyboard-response","181","2.0.0","189889","pwnth7f2j08","seal","null","stimuli/gym_51.jpg","null","gym","H","non-repeat","null","151","stimuli/gym_51.jpg","","","","",""
"","","","","","image-keyboard-response","182","2.0.0","190892","pwnth7f2j08","seal","null","stimuli/bar_6.jpg","null","bar","I","non-repeat","null","152","stimuli/bar_6.jpg","","","","",""
"","","","","","image-keyboard-response","183","2.0.0","191895","pwnth7f2j08","seal","612","stimuli/bar_6.jpg"," ","bar","I","repeat"," ","152","","","","","",""
"","","","","","image-keyboard-response","184","2.0.0","192898","pwnth7f2j08","seal","null","stimuli/desert_58.jpg","null","desert","J","non-repeat","null","153","stimuli/desert_58.jpg","","","","",""
"","","","","","image-keyboard-response","185","2.0.0","193900","pwnth7f2j08","seal","584","stimuli/desert_58.jpg"," ","desert","J","repeat"," ","153","","","","","",""
"","","","","","image-keyboard-response","186","2.0.0","194903","pwnth7f2j08","seal","null","stimuli/playground_24.jpg","null","playground","K","non-repeat","null","154","stimuli/playground_24.jpg","","","","",""
"","","","","","image-keyboard-response","187","2.0.0","195905","pwnth7f2j08","seal","null","stimuli/street_13.jpg","null","street","L","non-repeat","null","155","stimuli/street_13.jpg","","","","",""
"","","","","","image-keyboard-response","188","2.0.0","196907","pwnth7f2j08","seal","null","stimuli/street_13.jpg","null","street","L","repeat"," ","155","","","","","",""
"","","","","","image-keyboard-response","189","2.0.0","197911","pwnth7f2j08","seal","null","stimuli/coast_23.jpg","null","coast","A","non-repeat","null","156","stimuli/coast_23.jpg","","","","",""
"","","","","","image-keyboard-response","190","2.0.0","198914","pwnth7f2j08","seal","null","stimuli/stream_36.jpg","null","stream","B","non-repeat","null","157","stimuli/stream_36.jpg","","","","",""
"","","","","","image-keyboard-response","191","2.0.0","199917","pwnth7f2j08","seal","null","stimuli/kitchen_23.jpg","null","kitchen","C","non-repeat","null","158","stimuli/kitchen_23.jpg","","","","",""
"","","","","","image-keyboard-response","192","2.0.0","200926","pwnth7f2j08","seal","null","stimuli/desert_58.jpg","null","desert","J","non-repeat","null","159","stimuli/desert_58.jpg","","","","",""
"","","","","","image-keyboard-response","193","2.0.0","201929","pwnth7f2j08","seal","null","stimuli/playground_24.jpg","null","playground","K","non-repeat","null","160","stimuli/playground_24.jpg","","","","",""
"","","","","","image-keyboard-response","194","2.0.0","202931","pwnth7f2j08","seal","null","stimuli/street_13.jpg","null","street","L","non-repeat","null","161","stimuli/street_13.jpg","","","","",""
"","","","","","image-keyboard-response","195","2.0.0","203934","pwnth7f2j08","seal","null","stimuli/street_13.jpg","null","street","L","repeat"," ","161","","","","","",""
"","","","","","image-keyboard-response","196","2.0.0","204936","pwnth7f2j08","seal","null","stimuli/coast_23.jpg","null","coast","A","non-repeat","null","162","stimuli/coast_23.jpg","","","","",""
"","","","","","image-keyboard-response","197","2.0.0","205937","pwnth7f2j08","seal","null","stimuli/stream_36.jpg","null","stream","B","non-repeat","null","163","stimuli/stream_36.jpg","","","","",""
"","","","","","image-keyboard-response","198","2.0.0","206940","pwnth7f2j08","seal","null","stimuli/kitchen_23.jpg","null","kitchen","C","non-repeat","null","164","stimuli/kitchen_23.jpg","","","","",""
"","","","","","image-keyboard-response","199","2.0.0","207943","pwnth7f2j08","seal","null","stimuli/desert_58.jpg","null","desert","J","non-repeat","null","165","stimuli/desert_58.jpg","","","","",""
"","","","","","image-keyboard-response","200","2.0.0","208947","pwnth7f2j08","seal","null","stimuli/desert_58.jpg","null","desert","J","repeat"," ","165","","","","","",""
"","","","","","image-keyboard-response","201","2.0.0","209949","pwnth7f2j08","seal","null","stimuli/playground_24.jpg","null","playground","K","non-repeat","null","166","stimuli/playground_24.jpg","","","","",""
"","","","","","image-keyboard-response","202","2.0.0","210952","pwnth7f2j08","seal","null","stimuli/street_13.jpg","null","street","L","non-repeat","null","167","stimuli/street_13.jpg","","","","",""
"","","","","","image-keyboard-response","203","2.0.0","211954","pwnth7f2j08","seal","null","stimuli/street_13.jpg","null","street","L","repeat"," ","167","","","","","",""
"","","","","","image-keyboard-response","204","2.0.0","212956","pwnth7f2j08","seal","null","stimuli/coast_23.jpg","null","coast","A","non-repeat","null","168","stimuli/coast_23.jpg","","","","",""
"","","","","","image-keyboard-response","205","2.0.0","213960","pwnth7f2j08","seal","null","stimuli/stream_36.jpg","null","stream","B","non-repeat","null","169","stimuli/stream_36.jpg","","","","",""
"","","","","","image-keyboard-response","206","2.0.0","214962","pwnth7f2j08","seal","null","stimuli/kitchen_23.jpg","null","kitchen","C","non-repeat","null","170","stimuli/kitchen_23.jpg","","","","",""
"","","","","","image-keyboard-response","207","2.0.0","215965","pwnth7f2j08","seal","null","stimuli/bridge_39.jpg","null","bridge","G","non-repeat","null","171","stimuli/bridge_39.jpg","","","","",""
"","","","","","image-keyboard-response","208","2.0.0","216967","pwnth7f2j08","seal","null","stimuli/gym_51.jpg","null","gym","H","non-repeat","null","172","stimuli/gym_51.jpg","","","","",""
"","","","","","image-keyboard-response","209","2.0.0","217969","pwnth7f2j08","seal","null","stimuli/bar_6.jpg","null","bar","I","non-repeat","null","173","stimuli/bar_6.jpg","","","","",""
"","","","","","image-keyboard-response","210","2.0.0","218972","pwnth7f2j08","seal","null","stimuli/coast_23.jpg","null","coast","A","non-repeat","null","174","stimuli/coast_23.jpg","","","","",""
"","","","","","image-keyboard-response","211","2.0.0","219975","pwnth7f2j08","seal","null","stimuli/stream_36.jpg","null","stream","B","non-repeat","null","175","stimuli/stream_36.jpg","","","","",""
"","","","","","image-keyboard-response","212","2.0.0","220978","pwnth7f2j08","seal","null","stimuli/kitchen_23.jpg","null","kitchen","C","non-repeat","null","176","stimuli/kitchen_23.jpg","","","","",""
"","","","","","image-keyboard-response","213","2.0.0","221981","pwnth7f2j08","seal","null","stimuli/bridge_39.jpg","null","bridge","G","non-repeat","null","177","stimuli/bridge_39.jpg","","","","",""
"","","","","","image-keyboard-response","214","2.0.0","222984","pwnth7f2j08","seal","null","stimuli/gym_51.jpg","null","gym","H","non-repeat","null","178","stimuli/gym_51.jpg","","","","",""
"","","","","","image-keyboard-response","215","2.0.0","223986","pwnth7f2j08","seal","null","stimuli/bar_6.jpg","null","bar","I","non-repeat","null","179","stimuli/bar_6.jpg","","","","",""
"","","","","","image-keyboard-response","216","2.0.0","224988","pwnth7f2j08","seal","null","stimuli/field_19.jpg","null","field","D","non-repeat","null","180","stimuli/field_19.jpg","","","","",""
"","","","","","image-keyboard-response","217","2.0.0","225989","pwnth7f2j08","seal","null","stimuli/woods_17.jpg","null","woods","E","non-repeat","null","181","stimuli/woods_17.jpg","","","","",""
"","","","","","image-keyboard-response","218","2.0.0","226991","pwnth7f2j08","seal","null","stimuli/bathroom_38.jpg","null","bathroom","F","non-repeat","null","182","stimuli/bathroom_38.jpg","","","","",""
"","","","","","image-keyboard-response","219","2.0.0","227994","pwnth7f2j08","seal","null","stimuli/bathroom_38.jpg","null","bathroom","F","repeat"," ","182","","","","","",""
"","","","","","image-keyboard-response","220","2.0.0","228996","pwnth7f2j08","seal","null","stimuli/bridge_39.jpg","null","bridge","G","non-repeat","null","183","stimuli/bridge_39.jpg","","","","",""
"","","","","","image-keyboard-response","221","2.0.0","229999","pwnth7f2j08","seal","null","stimuli/gym_51.jpg","null","gym","H","non-repeat","null","184","stimuli/gym_51.jpg","","","","",""
"","","","","","image-keyboard-response","222","2.0.0","231001","pwnth7f2j08","seal","null","stimuli/bar_6.jpg","null","bar","I","non-repeat","null","185","stimuli/bar_6.jpg","","","","",""
"","","","","","image-keyboard-response","223","2.0.0","232004","pwnth7f2j08","seal","null","stimuli/coast_23.jpg","null","coast","A","non-repeat","null","186","stimuli/coast_23.jpg","","","","",""
"","","","","","image-keyboard-response","224","2.0.0","233007","pwnth7f2j08","seal","null","stimuli/stream_36.jpg","null","stream","B","non-repeat","null","187","stimuli/stream_36.jpg","","","","",""
"","","","","","image-keyboard-response","225","2.0.0","234011","pwnth7f2j08","seal","null","stimuli/kitchen_23.jpg","null","kitchen","C","non-repeat","null","188","stimuli/kitchen_23.jpg","","","","",""
"","","","","","image-keyboard-response","226","2.0.0","235014","pwnth7f2j08","seal","643","stimuli/kitchen_23.jpg"," ","kitchen","C","repeat"," ","188","","","","","",""
"","","","","","image-keyboard-response","227","2.0.0","236017","pwnth7f2j08","seal","null","stimuli/field_19.jpg","null","field","D","non-repeat","null","189","stimuli/field_19.jpg","","","","",""
"","","","","","image-keyboard-response","228","2.0.0","237019","pwnth7f2j08","seal","null","stimuli/woods_17.jpg","null","woods","E","non-repeat","null","190","stimuli/woods_17.jpg","","","","",""
"","","","","","image-keyboard-response","229","2.0.0","238022","pwnth7f2j08","seal","null","stimuli/bathroom_38.jpg","null","bathroom","F","non-repeat","null","191","stimuli/bathroom_38.jpg","","","","",""
"","","","","","image-keyboard-response","230","2.0.0","239025","pwnth7f2j08","seal","null","stimuli/coast_23.jpg","null","coast","A","non-repeat","null","192","stimuli/coast_23.jpg","","","","",""
"","","","","","image-keyboard-response","231","2.0.0","240028","pwnth7f2j08","seal","null","stimuli/stream_36.jpg","null","stream","B","non-repeat","null","193","stimuli/stream_36.jpg","","","","",""
"","","","","","image-keyboard-response","232","2.0.0","241031","pwnth7f2j08","seal","null","stimuli/kitchen_23.jpg","null","kitchen","C","non-repeat","null","194","stimuli/kitchen_23.jpg","","","","",""
"","","","","","image-keyboard-response","233","2.0.0","242033","pwnth7f2j08","seal","null","stimuli/field_19.jpg","null","field","D","non-repeat","null","195","stimuli/field_19.jpg","","","","",""
"","","","","","image-keyboard-response","234","2.0.0","243035","pwnth7f2j08","seal","null","stimuli/woods_17.jpg","null","woods","E","non-repeat","null","196","stimuli/woods_17.jpg","","","","",""
"","","","","","image-keyboard-response","235","2.0.0","244038","pwnth7f2j08","seal","null","stimuli/bathroom_38.jpg","null","bathroom","F","non-repeat","null","197","stimuli/bathroom_38.jpg","","","","",""
"","","","","","image-keyboard-response","236","2.0.0","245041","pwnth7f2j08","seal","null","stimuli/desert_58.jpg","null","desert","J","non-repeat","null","198","stimuli/desert_58.jpg","","","","",""
"","","","","","image-keyboard-response","237","2.0.0","246043","pwnth7f2j08","seal","null","stimuli/playground_24.jpg","null","playground","K","non-repeat","null","199","stimuli/playground_24.jpg","","","","",""
"","","","","","image-keyboard-response","238","2.0.0","247045","pwnth7f2j08","seal","null","stimuli/street_13.jpg","null","street","L","non-repeat","null","200","stimuli/street_13.jpg","","","","",""
"","","","","","image-keyboard-response","239","2.0.0","248048","pwnth7f2j08","seal","null","stimuli/bridge_39.jpg","null","bridge","G","non-repeat","null","201","stimuli/bridge_39.jpg","","","","",""
"","","","","","image-keyboard-response","240","2.0.0","249050","pwnth7f2j08","seal","null","stimuli/gym_51.jpg","null","gym","H","non-repeat","null","202","stimuli/gym_51.jpg","","","","",""
"","","","","","image-keyboard-response","241","2.0.0","250054","pwnth7f2j08","seal","null","stimuli/bar_6.jpg","null","bar","I","non-repeat","null","203","stimuli/bar_6.jpg","","","","",""
"","","","","","image-keyboard-response","242","2.0.0","251056","pwnth7f2j08","seal","null","stimuli/coast_23.jpg","null","coast","A","non-repeat","null","204","stimuli/coast_23.jpg","","","","",""
"","","","","","image-keyboard-response","243","2.0.0","252058","pwnth7f2j08","seal","null","stimuli/stream_36.jpg","null","stream","B","non-repeat","null","205","stimuli/stream_36.jpg","","","","",""
"","","","","","image-keyboard-response","244","2.0.0","253061","pwnth7f2j08","seal","null","stimuli/kitchen_23.jpg","null","kitchen","C","non-repeat","null","206","stimuli/kitchen_23.jpg","","","","",""
"","","","","","image-keyboard-response","245","2.0.0","254064","pwnth7f2j08","seal","null","stimuli/bridge_39.jpg","null","bridge","G","non-repeat","null","207","stimuli/bridge_39.jpg","","","","",""
"","","","","","image-keyboard-response","246","2.0.0","255066","pwnth7f2j08","seal","null","stimuli/gym_51.jpg","null","gym","H","non-repeat","null","208","stimuli/gym_51.jpg","","","","",""
"","","","","","image-keyboard-response","247","2.0.0","256068","pwnth7f2j08","seal","null","stimuli/bar_6.jpg","null","bar","I","non-repeat","null","209","stimuli/bar_6.jpg","","","","",""
"","","","","","image-keyboard-response","248","2.0.0","257071","pwnth7f2j08","seal","608","stimuli/bar_6.jpg"," ","bar","I","repeat"," ","209","","","","","",""
"","","","","","image-keyboard-response","249","2.0.0","258074","pwnth7f2j08","seal","null","stimuli/coast_23.jpg","null","coast","A","non-repeat","null","210","stimuli/coast_23.jpg","","","","",""
"","","","","","image-keyboard-response","250","2.0.0","259076","pwnth7f2j08","seal","null","stimuli/stream_36.jpg","null","stream","B","non-repeat","null","211","stimuli/stream_36.jpg","","","","",""
"","","","","","image-keyboard-response","251","2.0.0","260079","pwnth7f2j08","seal","null","stimuli/kitchen_23.jpg","null","kitchen","C","non-repeat","null","212","stimuli/kitchen_23.jpg","","","","",""
"","","","","","image-keyboard-response","252","2.0.0","261082","pwnth7f2j08","seal","null","stimuli/field_19.jpg","null","field","D","non-repeat","null","213","stimuli/field_19.jpg","","","","",""
"","","","","","image-keyboard-response","253","2.0.0","262084","pwnth7f2j08","seal","null","stimuli/woods_17.jpg","null","woods","E","non-repeat","null","214","stimuli/woods_17.jpg","","","","",""
"","","","","","image-keyboard-response","254","2.0.0","263087","pwnth7f2j08","seal","null","stimuli/bathroom_38.jpg","null","bathroom","F","non-repeat","null","215","stimuli/bathroom_38.jpg","","","","",""
"","","","","","image-keyboard-response","255","2.0.0","264090","pwnth7f2j08","seal","null","stimuli/bathroom_38.jpg","null","bathroom","F","repeat"," ","215","","","","","",""
"","","","","","image-keyboard-response","256","2.0.0","265093","pwnth7f2j08","seal","null","stimuli/coast_23.jpg","null","coast","A","non-repeat","null","216","stimuli/coast_23.jpg","","","","",""
"","","","","","image-keyboard-response","257","2.0.0","266096","pwnth7f2j08","seal","null","stimuli/stream_36.jpg","null","stream","B","non-repeat","null","217","stimuli/stream_36.jpg","","","","",""
"","","","","","image-keyboard-response","258","2.0.0","267099","pwnth7f2j08","seal","null","stimuli/kitchen_23.jpg","null","kitchen","C","non-repeat","null","218","stimuli/kitchen_23.jpg","","","","",""
"","","","","","image-keyboard-response","259","2.0.0","268102","pwnth7f2j08","seal","null","stimuli/bridge_39.jpg","null","bridge","G","non-repeat","null","219","stimuli/bridge_39.jpg","","","","",""
"","","","","","image-keyboard-response","260","2.0.0","269103","pwnth7f2j08","seal","null","stimuli/gym_51.jpg","null","gym","H","non-repeat","null","220","stimuli/gym_51.jpg","","","","",""
"","","","","","image-keyboard-response","261","2.0.0","270106","pwnth7f2j08","seal","null","stimuli/bar_6.jpg","null","bar","I","non-repeat","null","221","stimuli/bar_6.jpg","","","","",""
"","","","","","image-keyboard-response","262","2.0.0","271108","pwnth7f2j08","seal","null","stimuli/field_19.jpg","null","field","D","non-repeat","null","222","stimuli/field_19.jpg","","","","",""
"","","","","","image-keyboard-response","263","2.0.0","272111","pwnth7f2j08","seal","null","stimuli/woods_17.jpg","null","woods","E","non-repeat","null","223","stimuli/woods_17.jpg","","","","",""
"","","","","","image-keyboard-response","264","2.0.0","273114","pwnth7f2j08","seal","null","stimuli/bathroom_38.jpg","null","bathroom","F","non-repeat","null","224","stimuli/bathroom_38.jpg","","","","",""
"","","","","","image-keyboard-response","265","2.0.0","274117","pwnth7f2j08","seal","null","stimuli/desert_58.jpg","null","desert","J","non-repeat","null","225","stimuli/desert_58.jpg","","","","",""
"","","","","","image-keyboard-response","266","2.0.0","275121","pwnth7f2j08","seal","667","stimuli/desert_58.jpg"," ","desert","J","repeat"," ","225","","","","","",""
"","","","","","image-keyboard-response","267","2.0.0","276122","pwnth7f2j08","seal","null","stimuli/playground_24.jpg","null","playground","K","non-repeat","null","226","stimuli/playground_24.jpg","","","","",""
"","","","","","image-keyboard-response","268","2.0.0","277125","pwnth7f2j08","seal","null","stimuli/street_13.jpg","null","street","L","non-repeat","null","227","stimuli/street_13.jpg","","","","",""
"","","","","","image-keyboard-response","269","2.0.0","278128","pwnth7f2j08","seal","null","stimuli/field_19.jpg","null","field","D","non-repeat","null","228","stimuli/field_19.jpg","","","","",""
"","","","","","image-keyboard-response","270","2.0.0","279131","pwnth7f2j08","seal","null","stimuli/woods_17.jpg","null","woods","E","non-repeat","null","229","stimuli/woods_17.jpg","","","","",""
"","","","","","image-keyboard-response","271","2.0.0","280134","pwnth7f2j08","seal","null","stimuli/bathroom_38.jpg","null","bathroom","F","non-repeat","null","230","stimuli/bathroom_38.jpg","","","","",""
"","","","","","image-keyboard-response","272","2.0.0","281136","pwnth7f2j08","seal","null","stimuli/desert_58.jpg","null","desert","J","non-repeat","null","231","stimuli/desert_58.jpg","","","","",""
"","","","","","image-keyboard-response","273","2.0.0","282139","pwnth7f2j08","seal","471","stimuli/desert_58.jpg"," ","desert","J","repeat"," ","231","","","","","",""
"","","","","","image-keyboard-response","274","2.0.0","283141","pwnth7f2j08","seal","null","stimuli/playground_24.jpg","null","playground","K","non-repeat","null","232","stimuli/playground_24.jpg","","","","",""
"","","","","","image-keyboard-response","275","2.0.0","284144","pwnth7f2j08","seal","null","stimuli/street_13.jpg","null","street","L","non-repeat","null","233","stimuli/street_13.jpg","","","","",""
"","","","","","image-keyboard-response","276","2.0.0","285146","pwnth7f2j08","seal","null","stimuli/field_19.jpg","null","field","D","non-repeat","null","234","stimuli/field_19.jpg","","","","",""
"","","","","","image-keyboard-response","277","2.0.0","286155","pwnth7f2j08","seal","null","stimuli/woods_17.jpg","null","woods","E","non-repeat","null","235","stimuli/woods_17.jpg","","","","",""
"","","","","","image-keyboard-response","278","2.0.0","287158","pwnth7f2j08","seal","null","stimuli/bathroom_38.jpg","null","bathroom","F","non-repeat","null","236","stimuli/bathroom_38.jpg","","","","",""
"","","","","","image-keyboard-response","279","2.0.0","288160","pwnth7f2j08","seal","null","stimuli/desert_58.jpg","null","desert","J","non-repeat","null","237","stimuli/desert_58.jpg","","","","",""
"","","","","","image-keyboard-response","280","2.0.0","289163","pwnth7f2j08","seal","null","stimuli/playground_24.jpg","null","playground","K","non-repeat","null","238","stimuli/playground_24.jpg","","","","",""
"","","","","","image-keyboard-response","281","2.0.0","290165","pwnth7f2j08","seal","null","stimuli/street_13.jpg","null","street","L","non-repeat","null","239","stimuli/street_13.jpg","","","","",""
"","","","","","image-keyboard-response","282","2.0.0","291168","pwnth7f2j08","seal","null","stimuli/street_13.jpg","null","street","L","repeat"," ","239","","","","","",""
"","","","","","image-keyboard-response","283","2.0.0","292171","pwnth7f2j08","seal","null","stimuli/bridge_39.jpg","null","bridge","G","non-repeat","null","240","stimuli/bridge_39.jpg","","","","",""
"","","","","","image-keyboard-response","284","2.0.0","293173","pwnth7f2j08","seal","null","stimuli/gym_51.jpg","null","gym","H","non-repeat","null","241","stimuli/gym_51.jpg","","","","",""
"","","","","","image-keyboard-response","285","2.0.0","294176","pwnth7f2j08","seal","null","stimuli/bar_6.jpg","null","bar","I","non-repeat","null","242","stimuli/bar_6.jpg","","","","",""
"","","","","","image-keyboard-response","286","2.0.0","295178","pwnth7f2j08","seal","null","stimuli/field_19.jpg","null","field","D","non-repeat","null","243","stimuli/field_19.jpg","","","","",""
"","","","","","image-keyboard-response","287","2.0.0","296181","pwnth7f2j08","seal","null","stimuli/woods_17.jpg","null","woods","E","non-repeat","null","244","stimuli/woods_17.jpg","","","","",""
"","","","","","image-keyboard-response","288","2.0.0","297183","pwnth7f2j08","seal","null","stimuli/bathroom_38.jpg","null","bathroom","F","non-repeat","null","245","stimuli/bathroom_38.jpg","","","","",""
"","","","","","image-keyboard-response","289","2.0.0","298186","pwnth7f2j08","seal","null","stimuli/desert_58.jpg","null","desert","J","non-repeat","null","246","stimuli/desert_58.jpg","","","","",""
"","","","","","image-keyboard-response","290","2.0.0","299188","pwnth7f2j08","seal","null","stimuli/playground_24.jpg","null","playground","K","non-repeat","null","247","stimuli/playground_24.jpg","","","","",""
"","","","","","image-keyboard-response","291","2.0.0","300191","pwnth7f2j08","seal","null","stimuli/street_13.jpg","null","street","L","non-repeat","null","248","stimuli/street_13.jpg","","","","",""
"","","","","","image-keyboard-response","292","2.0.0","301193","pwnth7f2j08","seal","null","stimuli/coast_23.jpg","null","coast","A","non-repeat","null","249","stimuli/coast_23.jpg","","","","",""
"","","","","","image-keyboard-response","293","2.0.0","302195","pwnth7f2j08","seal","null","stimuli/stream_36.jpg","null","stream","B","non-repeat","null","250","stimuli/stream_36.jpg","","","","",""
"","","","","","image-keyboard-response","294","2.0.0","303197","pwnth7f2j08","seal","null","stimuli/kitchen_23.jpg","null","kitchen","C","non-repeat","null","251","stimuli/kitchen_23.jpg","","","","",""
"","","","","","image-keyboard-response","295","2.0.0","304199","pwnth7f2j08","seal","null","stimuli/desert_58.jpg","null","desert","J","non-repeat","null","252","stimuli/desert_58.jpg","","","","",""
"","","","","","image-keyboard-response","296","2.0.0","305203","pwnth7f2j08","seal","null","stimuli/playground_24.jpg","null","playground","K","non-repeat","null","253","stimuli/playground_24.jpg","","","","",""
"","","","","","image-keyboard-response","297","2.0.0","306206","pwnth7f2j08","seal","null","stimuli/street_13.jpg","null","street","L","non-repeat","null","254","stimuli/street_13.jpg","","","","",""
"","","","","","image-keyboard-response","298","2.0.0","307208","pwnth7f2j08","seal","null","stimuli/coast_23.jpg","null","coast","A","non-repeat","null","255","stimuli/coast_23.jpg","","","","",""
"","","","","","image-keyboard-response","299","2.0.0","308212","pwnth7f2j08","seal","null","stimuli/stream_36.jpg","null","stream","B","non-repeat","null","256","stimuli/stream_36.jpg","","","","",""
"","","","","","image-keyboard-response","300","2.0.0","309213","pwnth7f2j08","seal","null","stimuli/kitchen_23.jpg","null","kitchen","C","non-repeat","null","257","stimuli/kitchen_23.jpg","","","","",""
"","","","","","image-keyboard-response","301","2.0.0","310216","pwnth7f2j08","seal","null","stimuli/bridge_39.jpg","null","bridge","G","non-repeat","null","258","stimuli/bridge_39.jpg","","","","",""
"","","","","","image-keyboard-response","302","2.0.0","311219","pwnth7f2j08","seal","null","stimuli/bridge_39.jpg","null","bridge","G","repeat"," ","258","","","","","",""
"","","","","","image-keyboard-response","303","2.0.0","312221","pwnth7f2j08","seal","null","stimuli/gym_51.jpg","null","gym","H","non-repeat","null","259","stimuli/gym_51.jpg","","","","",""
"","","","","","image-keyboard-response","304","2.0.0","313224","pwnth7f2j08","seal","null","stimuli/bar_6.jpg","null","bar","I","non-repeat","null","260","stimuli/bar_6.jpg","","","","",""
"","","","","","image-keyboard-response","305","2.0.0","314227","pwnth7f2j08","seal","null","stimuli/desert_58.jpg","null","desert","J","non-repeat","null","261","stimuli/desert_58.jpg","","","","",""
"","","","","","image-keyboard-response","306","2.0.0","315229","pwnth7f2j08","seal","null","stimuli/playground_24.jpg","null","playground","K","non-repeat","null","262","stimuli/playground_24.jpg","","","","",""
"","","","","","image-keyboard-response","307","2.0.0","316232","pwnth7f2j08","seal","null","stimuli/street_13.jpg","null","street","L","non-repeat","null","263","stimuli/street_13.jpg","","","","",""
"","","","","","image-keyboard-response","308","2.0.0","317235","pwnth7f2j08","seal","null","stimuli/coast_23.jpg","null","coast","A","non-repeat","null","264","stimuli/coast_23.jpg","","","","",""
"","","","","","image-keyboard-response","309","2.0.0","318238","pwnth7f2j08","seal","null","stimuli/stream_36.jpg","null","stream","B","non-repeat","null","265","stimuli/stream_36.jpg","","","","",""
"","","","","","image-keyboard-response","310","2.0.0","319241","pwnth7f2j08","seal","null","stimuli/kitchen_23.jpg","null","kitchen","C","non-repeat","null","266","stimuli/kitchen_23.jpg","","","","",""
"","","","","","image-keyboard-response","311","2.0.0","320243","pwnth7f2j08","seal","null","stimuli/desert_58.jpg","null","desert","J","non-repeat","null","267","stimuli/desert_58.jpg","","","","",""
"","","","","","image-keyboard-response","312","2.0.0","321246","pwnth7f2j08","seal","null","stimuli/playground_24.jpg","null","playground","K","non-repeat","null","268","stimuli/playground_24.jpg","","","","",""
"","","","","","image-keyboard-response","313","2.0.0","322248","pwnth7f2j08","seal","null","stimuli/street_13.jpg","null","street","L","non-repeat","null","269","stimuli/street_13.jpg","","","","",""
"","","","","","image-keyboard-response","314","2.0.0","323250","pwnth7f2j08","seal","null","stimuli/coast_23.jpg","null","coast","A","non-repeat","null","270","stimuli/coast_23.jpg","","","","",""
"","","","","","image-keyboard-response","315","2.0.0","324253","pwnth7f2j08","seal","null","stimuli/stream_36.jpg","null","stream","B","non-repeat","null","271","stimuli/stream_36.jpg","","","","",""
"","","","","","image-keyboard-response","316","2.0.0","325255","pwnth7f2j08","seal","null","stimuli/kitchen_23.jpg","null","kitchen","C","non-repeat","null","272","stimuli/kitchen_23.jpg","","","","",""
"","","","","","image-keyboard-response","317","2.0.0","326258","pwnth7f2j08","seal","487","stimuli/kitchen_23.jpg"," ","kitchen","C","repeat"," ","272","","","","","",""
"","","","","","image-keyboard-response","318","2.0.0","327261","pwnth7f2j08","seal","null","stimuli/bridge_39.jpg","null","bridge","G","non-repeat","null","273","stimuli/bridge_39.jpg","","","","",""
"","","","","","image-keyboard-response","319","2.0.0","328264","pwnth7f2j08","seal","null","stimuli/gym_51.jpg","null","gym","H","non-repeat","null","274","stimuli/gym_51.jpg","","","","",""
"","","","","","image-keyboard-response","320","2.0.0","329267","pwnth7f2j08","seal","null","stimuli/bar_6.jpg","null","bar","I","non-repeat","null","275","stimuli/bar_6.jpg","","","","",""
"","","","","","image-keyboard-response","321","2.0.0","330270","pwnth7f2j08","seal","null","stimuli/bar_6.jpg","null","bar","I","repeat"," ","275","","","","","",""
"","","","","","image-keyboard-response","322","2.0.0","331273","pwnth7f2j08","seal","null","stimuli/field_19.jpg","null","field","D","non-repeat","null","276","stimuli/field_19.jpg","","","","",""
"","","","","","image-keyboard-response","323","2.0.0","332276","pwnth7f2j08","seal","null","stimuli/woods_17.jpg","null","woods","E","non-repeat","null","277","stimuli/woods_17.jpg","","","","",""
"","","","","","image-keyboard-response","324","2.0.0","333279","pwnth7f2j08","seal","null","stimuli/bathroom_38.jpg","null","bathroom","F","non-repeat","null","278","stimuli/bathroom_38.jpg","","","","",""
"","","","","","image-keyboard-response","325","2.0.0","334282","pwnth7f2j08","seal","null","stimuli/bridge_39.jpg","null","bridge","G","non-repeat","null","279","stimuli/bridge_39.jpg","","","","",""
"","","","","","image-keyboard-response","326","2.0.0","335285","pwnth7f2j08","seal","null","stimuli/gym_51.jpg","null","gym","H","non-repeat","null","280","stimuli/gym_51.jpg","","","","",""
"","","","","","image-keyboard-response","327","2.0.0","336288","pwnth7f2j08","seal","null","stimuli/bar_6.jpg","null","bar","I","non-repeat","null","281","stimuli/bar_6.jpg","","","","",""
"","","","","","image-keyboard-response","328","2.0.0","337292","pwnth7f2j08","seal","638","stimuli/bar_6.jpg"," ","bar","I","repeat"," ","281","","","","","",""
"","","","","","image-keyboard-response","329","2.0.0","338294","pwnth7f2j08","seal","null","stimuli/desert_58.jpg","null","desert","J","non-repeat","null","282","stimuli/desert_58.jpg","","","","",""
"","","","","","image-keyboard-response","330","2.0.0","339297","pwnth7f2j08","seal","null","stimuli/playground_24.jpg","null","playground","K","non-repeat","null","283","stimuli/playground_24.jpg","","","","",""
"","","","","","image-keyboard-response","331","2.0.0","340300","pwnth7f2j08","seal","null","stimuli/street_13.jpg","null","street","L","non-repeat","null","284","stimuli/street_13.jpg","","","","",""
"","","","","","image-keyboard-response","332","2.0.0","341302","pwnth7f2j08","seal","null","stimuli/field_19.jpg","null","field","D","non-repeat","null","285","stimuli/field_19.jpg","","","","",""
"","","","","","image-keyboard-response","333","2.0.0","342304","pwnth7f2j08","seal","null","stimuli/woods_17.jpg","null","woods","E","non-repeat","null","286","stimuli/woods_17.jpg","","","","",""
"","","","","","image-keyboard-response","334","2.0.0","343307","pwnth7f2j08","seal","null","stimuli/bathroom_38.jpg","null","bathroom","F","non-repeat","null","287","stimuli/bathroom_38.jpg","","","","",""
"","","","","","image-keyboard-response","335","2.0.0","344309","pwnth7f2j08","seal","null","stimuli/coast_23.jpg","null","coast","A","non-repeat","null","288","stimuli/coast_23.jpg","","","","",""
"","","","","","image-keyboard-response","336","2.0.0","345312","pwnth7f2j08","seal","null","stimuli/stream_36.jpg","null","stream","B","non-repeat","null","289","stimuli/stream_36.jpg","","","","",""
"","","","","","image-keyboard-response","337","2.0.0","346316","pwnth7f2j08","seal","null","stimuli/kitchen_23.jpg","null","kitchen","C","non-repeat","null","290","stimuli/kitchen_23.jpg","","","","",""
"","","","","","image-keyboard-response","338","2.0.0","347319","pwnth7f2j08","seal","null","stimuli/bridge_39.jpg","null","bridge","G","non-repeat","null","291","stimuli/bridge_39.jpg","","","","",""
"","","","","","image-keyboard-response","339","2.0.0","348322","pwnth7f2j08","seal","null","stimuli/gym_51.jpg","null","gym","H","non-repeat","null","292","stimuli/gym_51.jpg","","","","",""
"","","","","","image-keyboard-response","340","2.0.0","349325","pwnth7f2j08","seal","null","stimuli/bar_6.jpg","null","bar","I","non-repeat","null","293","stimuli/bar_6.jpg","","","","",""
"","","","","","image-keyboard-response","341","2.0.0","350327","pwnth7f2j08","seal","693","stimuli/bar_6.jpg"," ","bar","I","repeat"," ","293","","","","","",""
"","","","","","image-keyboard-response","342","2.0.0","351328","pwnth7f2j08","seal","null","stimuli/coast_23.jpg","null","coast","A","non-repeat","null","294","stimuli/coast_23.jpg","","","","",""
"","","","","","image-keyboard-response","343","2.0.0","352330","pwnth7f2j08","seal","null","stimuli/stream_36.jpg","null","stream","B","non-repeat","null","295","stimuli/stream_36.jpg","","","","",""
"","","","","","image-keyboard-response","344","2.0.0","353333","pwnth7f2j08","seal","null","stimuli/kitchen_23.jpg","null","kitchen","C","non-repeat","null","296","stimuli/kitchen_23.jpg","","","","",""
"","","","","","image-keyboard-response","345","2.0.0","354334","pwnth7f2j08","seal","null","stimuli/field_19.jpg","null","field","D","non-repeat","null","297","stimuli/field_19.jpg","","","","",""
"","","","","","image-keyboard-response","346","2.0.0","355336","pwnth7f2j08","seal","null","stimuli/woods_17.jpg","null","woods","E","non-repeat","null","298","stimuli/woods_17.jpg","","","","",""
"","","","","","image-keyboard-response","347","2.0.0","356339","pwnth7f2j08","seal","null","stimuli/bathroom_38.jpg","null","bathroom","F","non-repeat","null","299","stimuli/bathroom_38.jpg","","","","",""
"","","","","","image-keyboard-response","348","2.0.0","357342","pwnth7f2j08","seal","null","stimuli/bridge_39.jpg","null","bridge","G","non-repeat","null","300","stimuli/bridge_39.jpg","","","","",""
"","","","","","image-keyboard-response","349","2.0.0","358344","pwnth7f2j08","seal","null","stimuli/gym_51.jpg","null","gym","H","non-repeat","null","301","stimuli/gym_51.jpg","","","","",""
"","","","","","image-keyboard-response","350","2.0.0","359347","pwnth7f2j08","seal","null","stimuli/bar_6.jpg","null","bar","I","non-repeat","null","302","stimuli/bar_6.jpg","","","","",""
"","","","","","image-keyboard-response","351","2.0.0","360350","pwnth7f2j08","seal","null","stimuli/field_19.jpg","null","field","D","non-repeat","null","303","stimuli/field_19.jpg","","","","",""
"","","","","","image-keyboard-response","352","2.0.0","361353","pwnth7f2j08","seal","null","stimuli/woods_17.jpg","null","woods","E","non-repeat","null","304","stimuli/woods_17.jpg","","","","",""
"","","","","","image-keyboard-response","353","2.0.0","362356","pwnth7f2j08","seal","null","stimuli/bathroom_38.jpg","null","bathroom","F","non-repeat","null","305","stimuli/bathroom_38.jpg","","","","",""
"","","","","","image-keyboard-response","354","2.0.0","363359","pwnth7f2j08","seal","null","stimuli/desert_58.jpg","null","desert","J","non-repeat","null","306","stimuli/desert_58.jpg","","","","",""
"","","","","","image-keyboard-response","355","2.0.0","364362","pwnth7f2j08","seal","null","stimuli/playground_24.jpg","null","playground","K","non-repeat","null","307","stimuli/playground_24.jpg","","","","",""
"","","","","","image-keyboard-response","356","2.0.0","365364","pwnth7f2j08","seal","null","stimuli/street_13.jpg","null","street","L","non-repeat","null","308","stimuli/street_13.jpg","","","","",""
"","","","","","image-keyboard-response","357","2.0.0","366367","pwnth7f2j08","seal","null","stimuli/bridge_39.jpg","null","bridge","G","non-repeat","null","309","stimuli/bridge_39.jpg","","","","",""
"","","","","","image-keyboard-response","358","2.0.0","367370","pwnth7f2j08","seal","null","stimuli/bridge_39.jpg","null","bridge","G","repeat"," ","309","","","","","",""
"","","","","","image-keyboard-response","359","2.0.0","368373","pwnth7f2j08","seal","null","stimuli/gym_51.jpg","null","gym","H","non-repeat","null","310","stimuli/gym_51.jpg","","","","",""
"","","","","","image-keyboard-response","360","2.0.0","369376","pwnth7f2j08","seal","null","stimuli/bar_6.jpg","null","bar","I","non-repeat","null","311","stimuli/bar_6.jpg","","","","",""
"","","","","","image-keyboard-response","361","2.0.0","370379","pwnth7f2j08","seal","null","stimuli/field_19.jpg","null","field","D","non-repeat","null","312","stimuli/field_19.jpg","","","","",""
"","","","","","image-keyboard-response","362","2.0.0","371388","pwnth7f2j08","seal","null","stimuli/woods_17.jpg","null","woods","E","non-repeat","null","313","stimuli/woods_17.jpg","","","","",""
"","","","","","image-keyboard-response","363","2.0.0","372391","pwnth7f2j08","seal","null","stimuli/bathroom_38.jpg","null","bathroom","F","non-repeat","null","314","stimuli/bathroom_38.jpg","","","","",""
"","","","","","image-keyboard-response","364","2.0.0","373393","pwnth7f2j08","seal","null","stimuli/coast_23.jpg","null","coast","A","non-repeat","null","315","stimuli/coast_23.jpg","","","","",""
"","","","","","image-keyboard-response","365","2.0.0","374396","pwnth7f2j08","seal","null","stimuli/coast_23.jpg","null","coast","A","repeat"," ","315","","","","","",""
"","","","","","image-keyboard-response","366","2.0.0","375399","pwnth7f2j08","seal","null","stimuli/stream_36.jpg","null","stream","B","non-repeat","null","316","stimuli/stream_36.jpg","","","","",""
"","","","","","image-keyboard-response","367","2.0.0","376401","pwnth7f2j08","seal","null","stimuli/kitchen_23.jpg","null","kitchen","C","non-repeat","null","317","stimuli/kitchen_23.jpg","","","","",""
"","","","","","image-keyboard-response","368","2.0.0","377404","pwnth7f2j08","seal","null","stimuli/bridge_39.jpg","null","bridge","G","non-repeat","null","318","stimuli/bridge_39.jpg","","","","",""
"","","","","","image-keyboard-response","369","2.0.0","378406","pwnth7f2j08","seal","null","stimuli/gym_51.jpg","null","gym","H","non-repeat","null","319","stimuli/gym_51.jpg","","","","",""
"","","","","","image-keyboard-response","370","2.0.0","379408","pwnth7f2j08","seal","null","stimuli/bar_6.jpg","null","bar","I","non-repeat","null","320","stimuli/bar_6.jpg","","","","",""
"","","","","","image-keyboard-response","371","2.0.0","380411","pwnth7f2j08","seal","null","stimuli/field_19.jpg","null","field","D","non-repeat","null","321","stimuli/field_19.jpg","","","","",""
"","","","","","image-keyboard-response","372","2.0.0","381414","pwnth7f2j08","seal","null","stimuli/field_19.jpg","null","field","D","repeat"," ","321","","","","","",""
"","","","","","image-keyboard-response","373","2.0.0","382417","pwnth7f2j08","seal","null","stimuli/woods_17.jpg","null","woods","E","non-repeat","null","322","stimuli/woods_17.jpg","","","","",""
"","","","","","image-keyboard-response","374","2.0.0","383419","pwnth7f2j08","seal","null","stimuli/bathroom_38.jpg","null","bathroom","F","non-repeat","null","323","stimuli/bathroom_38.jpg","","","","",""
"","","","","","image-keyboard-response","375","2.0.0","384423","pwnth7f2j08","seal","null","stimuli/bridge_39.jpg","null","bridge","G","non-repeat","null","324","stimuli/bridge_39.jpg","","","","",""
"","","","","","image-keyboard-response","376","2.0.0","385426","pwnth7f2j08","seal","918","stimuli/bridge_39.jpg"," ","bridge","G","repeat"," ","324","","","","","",""
"","","","","","image-keyboard-response","377","2.0.0","386428","pwnth7f2j08","seal","null","stimuli/gym_51.jpg","null","gym","H","non-repeat","null","325","stimuli/gym_51.jpg","","","","",""
"","","","","","image-keyboard-response","378","2.0.0","387431","pwnth7f2j08","seal","null","stimuli/bar_6.jpg","null","bar","I","non-repeat","null","326","stimuli/bar_6.jpg","","","","",""
"","","","","","image-keyboard-response","379","2.0.0","388434","pwnth7f2j08","seal","null","stimuli/field_19.jpg","null","field","D","non-repeat","null","327","stimuli/field_19.jpg","","","","",""
"","","","","","image-keyboard-response","380","2.0.0","389437","pwnth7f2j08","seal","null","stimuli/woods_17.jpg","null","woods","E","non-repeat","null","328","stimuli/woods_17.jpg","","","","",""
"","","","","","image-keyboard-response","381","2.0.0","390440","pwnth7f2j08","seal","null","stimuli/bathroom_38.jpg","null","bathroom","F","non-repeat","null","329","stimuli/bathroom_38.jpg","","","","",""
"","","","","","image-keyboard-response","382","2.0.0","391442","pwnth7f2j08","seal","null","stimuli/desert_58.jpg","null","desert","J","non-repeat","null","330","stimuli/desert_58.jpg","","","","",""
"","","","","","image-keyboard-response","383","2.0.0","392445","pwnth7f2j08","seal","593","stimuli/desert_58.jpg"," ","desert","J","repeat"," ","330","","","","","",""
"","","","","","image-keyboard-response","384","2.0.0","393447","pwnth7f2j08","seal","null","stimuli/playground_24.jpg","null","playground","K","non-repeat","null","331","stimuli/playground_24.jpg","","","","",""
"","","","","","image-keyboard-response","385","2.0.0","394450","pwnth7f2j08","seal","null","stimuli/street_13.jpg","null","street","L","non-repeat","null","332","stimuli/street_13.jpg","","","","",""
"","","","","","image-keyboard-response","386","2.0.0","395452","pwnth7f2j08","seal","null","stimuli/coast_23.jpg","null","coast","A","non-repeat","null","333","stimuli/coast_23.jpg","","","","",""
"","","","","","image-keyboard-response","387","2.0.0","396455","pwnth7f2j08","seal","null","stimuli/stream_36.jpg","null","stream","B","non-repeat","null","334","stimuli/stream_36.jpg","","","","",""
"","","","","","image-keyboard-response","388","2.0.0","397459","pwnth7f2j08","seal","null","stimuli/kitchen_23.jpg","null","kitchen","C","non-repeat","null","335","stimuli/kitchen_23.jpg","","","","",""
"","","","","","image-keyboard-response","389","2.0.0","398461","pwnth7f2j08","seal","null","stimuli/desert_58.jpg","null","desert","J","non-repeat","null","336","stimuli/desert_58.jpg","","","","",""
"","","","","","image-keyboard-response","390","2.0.0","399464","pwnth7f2j08","seal","null","stimuli/playground_24.jpg","null","playground","K","non-repeat","null","337","stimuli/playground_24.jpg","","","","",""
"","","","","","image-keyboard-response","391","2.0.0","400467","pwnth7f2j08","seal","null","stimuli/street_13.jpg","null","street","L","non-repeat","null","338","stimuli/street_13.jpg","","","","",""
"","","","","","image-keyboard-response","392","2.0.0","401468","pwnth7f2j08","seal","null","stimuli/bridge_39.jpg","null","bridge","G","non-repeat","null","339","stimuli/bridge_39.jpg","","","","",""
"","","","","","image-keyboard-response","393","2.0.0","402471","pwnth7f2j08","seal","528","stimuli/bridge_39.jpg"," ","bridge","G","repeat"," ","339","","","","","",""
"","","","","","image-keyboard-response","394","2.0.0","403473","pwnth7f2j08","seal","null","stimuli/gym_51.jpg","null","gym","H","non-repeat","null","340","stimuli/gym_51.jpg","","","","",""
"","","","","","image-keyboard-response","395","2.0.0","404475","pwnth7f2j08","seal","null","stimuli/bar_6.jpg","null","bar","I","non-repeat","null","341","stimuli/bar_6.jpg","","","","",""
"","","","","","image-keyboard-response","396","2.0.0","405478","pwnth7f2j08","seal","null","stimuli/field_19.jpg","null","field","D","non-repeat","null","342","stimuli/field_19.jpg","","","","",""
"","","","","","image-keyboard-response","397","2.0.0","406481","pwnth7f2j08","seal","null","stimuli/woods_17.jpg","null","woods","E","non-repeat","null","343","stimuli/woods_17.jpg","","","","",""
"","","","","","image-keyboard-response","398","2.0.0","407484","pwnth7f2j08","seal","null","stimuli/bathroom_38.jpg","null","bathroom","F","non-repeat","null","344","stimuli/bathroom_38.jpg","","","","",""
"","","","","","image-keyboard-response","399","2.0.0","408486","pwnth7f2j08","seal","null","stimuli/desert_58.jpg","null","desert","J","non-repeat","null","345","stimuli/desert_58.jpg","","","","",""
"","","","","","image-keyboard-response","400","2.0.0","409489","pwnth7f2j08","seal","null","stimuli/playground_24.jpg","null","playground","K","non-repeat","null","346","stimuli/playground_24.jpg","","","","",""
"","","","","","image-keyboard-response","401","2.0.0","410492","pwnth7f2j08","seal","null","stimuli/street_13.jpg","null","street","L","non-repeat","null","347","stimuli/street_13.jpg","","","","",""
"","","","","","image-keyboard-response","402","2.0.0","411495","pwnth7f2j08","seal","586","stimuli/street_13.jpg"," ","street","L","repeat"," ","347","","","","","",""
"","","","","","image-keyboard-response","403","2.0.0","412497","pwnth7f2j08","seal","null","stimuli/coast_23.jpg","null","coast","A","non-repeat","null","348","stimuli/coast_23.jpg","","","","",""
"","","","","","image-keyboard-response","404","2.0.0","413501","pwnth7f2j08","seal","null","stimuli/stream_36.jpg","null","stream","B","non-repeat","null","349","stimuli/stream_36.jpg","","","","",""
"","","","","","image-keyboard-response","405","2.0.0","414504","pwnth7f2j08","seal","null","stimuli/kitchen_23.jpg","null","kitchen","C","non-repeat","null","350","stimuli/kitchen_23.jpg","","","","",""
"","","","","","image-keyboard-response","406","2.0.0","415506","pwnth7f2j08","seal","null","stimuli/field_19.jpg","null","field","D","non-repeat","null","351","stimuli/field_19.jpg","","","","",""
"","","","","","image-keyboard-response","407","2.0.0","416508","pwnth7f2j08","seal","null","stimuli/woods_17.jpg","null","woods","E","non-repeat","null","352","stimuli/woods_17.jpg","","","","",""
"","","","","","image-keyboard-response","408","2.0.0","417510","pwnth7f2j08","seal","null","stimuli/bathroom_38.jpg","null","bathroom","F","non-repeat","null","353","stimuli/bathroom_38.jpg","","","","",""
"","","","","","image-keyboard-response","409","2.0.0","418513","pwnth7f2j08","seal","null","stimuli/desert_58.jpg","null","desert","J","non-repeat","null","354","stimuli/desert_58.jpg","","","","",""
"","","","","","image-keyboard-response","410","2.0.0","419517","pwnth7f2j08","seal","null","stimuli/playground_24.jpg","null","playground","K","non-repeat","null","355","stimuli/playground_24.jpg","","","","",""
"","","","","","image-keyboard-response","411","2.0.0","420520","pwnth7f2j08","seal","null","stimuli/street_13.jpg","null","street","L","non-repeat","null","356","stimuli/street_13.jpg","","","","",""
"","","","","","image-keyboard-response","412","2.0.0","421523","pwnth7f2j08","seal","null","stimuli/field_19.jpg","null","field","D","non-repeat","null","357","stimuli/field_19.jpg","","","","",""
"","","","","","image-keyboard-response","413","2.0.0","422526","pwnth7f2j08","seal","null","stimuli/woods_17.jpg","null","woods","E","non-repeat","null","358","stimuli/woods_17.jpg","","","","",""
"","","","","","image-keyboard-response","414","2.0.0","423529","pwnth7f2j08","seal","null","stimuli/bathroom_38.jpg","null","bathroom","F","non-repeat","null","359","stimuli/bathroom_38.jpg","","","","",""
"","","","","","image-keyboard-response","415","2.0.0","424532","pwnth7f2j08","seal","null","stimuli/coast_23.jpg","null","coast","A","non-repeat","null","360","stimuli/coast_23.jpg","","","","",""
"","","","","","image-keyboard-response","416","2.0.0","425535","pwnth7f2j08","seal","null","stimuli/stream_36.jpg","null","stream","B","non-repeat","null","361","stimuli/stream_36.jpg","","","","",""
"","","","","","image-keyboard-response","417","2.0.0","426538","pwnth7f2j08","seal","null","stimuli/kitchen_23.jpg","null","kitchen","C","non-repeat","null","362","stimuli/kitchen_23.jpg","","","","",""
"","","","","","image-keyboard-response","418","2.0.0","427541","pwnth7f2j08","seal","null","stimuli/bridge_39.jpg","null","bridge","G","non-repeat","null","363","stimuli/bridge_39.jpg","","","","",""
"","","","","","image-keyboard-response","419","2.0.0","428544","pwnth7f2j08","seal","null","stimuli/gym_51.jpg","null","gym","H","non-repeat","null","364","stimuli/gym_51.jpg","","","","",""
"","","","","","image-keyboard-response","420","2.0.0","429547","pwnth7f2j08","seal","null","stimuli/bar_6.jpg","null","bar","I","non-repeat","null","365","stimuli/bar_6.jpg","","","","",""
"","","","","","image-keyboard-response","421","2.0.0","430549","pwnth7f2j08","seal","null","stimuli/bar_6.jpg","null","bar","I","repeat"," ","365","","","","","",""
"","","","","","image-keyboard-response","422","2.0.0","431552","pwnth7f2j08","seal","null","stimuli/desert_58.jpg","null","desert","J","non-repeat","null","366","stimuli/desert_58.jpg","","","","",""
"","","","","","image-keyboard-response","423","2.0.0","432556","pwnth7f2j08","seal","null","stimuli/playground_24.jpg","null","playground","K","non-repeat","null","367","stimuli/playground_24.jpg","","","","",""
"","","","","","image-keyboard-response","424","2.0.0","433559","pwnth7f2j08","seal","null","stimuli/street_13.jpg","null","street","L","non-repeat","null","368","stimuli/street_13.jpg","","","","",""
"","","","","","image-keyboard-response","425","2.0.0","434562","pwnth7f2j08","seal","null","stimuli/coast_23.jpg","null","coast","A","non-repeat","null","369","stimuli/coast_23.jpg","","","","",""
"","","","","","image-keyboard-response","426","2.0.0","435564","pwnth7f2j08","seal","null","stimuli/stream_36.jpg","null","stream","B","non-repeat","null","370","stimuli/stream_36.jpg","","","","",""
"","","","","","image-keyboard-response","427","2.0.0","436567","pwnth7f2j08","seal","null","stimuli/kitchen_23.jpg","null","kitchen","C","non-repeat","null","371","stimuli/kitchen_23.jpg","","","","",""
"","","","","","image-keyboard-response","428","2.0.0","437570","pwnth7f2j08","seal","null","stimuli/field_19.jpg","null","field","D","non-repeat","null","372","stimuli/field_19.jpg","","","","",""
"","","","","","image-keyboard-response","429","2.0.0","438573","pwnth7f2j08","seal","null","stimuli/woods_17.jpg","null","woods","E","non-repeat","null","373","stimuli/woods_17.jpg","","","","",""
"","","","","","image-keyboard-response","430","2.0.0","439576","pwnth7f2j08","seal","null","stimuli/bathroom_38.jpg","null","bathroom","F","non-repeat","null","374","stimuli/bathroom_38.jpg","","","","",""
"","","","","","image-keyboard-response","431","2.0.0","440579","pwnth7f2j08","seal","884","stimuli/bathroom_38.jpg"," ","bathroom","F","repeat"," ","374","","","","","",""
"","","","","","image-keyboard-response","432","2.0.0","441582","pwnth7f2j08","seal","null","stimuli/bridge_39.jpg","null","bridge","G","non-repeat","null","375","stimuli/bridge_39.jpg","","","","",""
"","","","","","image-keyboard-response","433","2.0.0","442585","pwnth7f2j08","seal","null","stimuli/gym_51.jpg","null","gym","H","non-repeat","null","376","stimuli/gym_51.jpg","","","","",""
"","","","","","image-keyboard-response","434","2.0.0","443587","pwnth7f2j08","seal","null","stimuli/bar_6.jpg","null","bar","I","non-repeat","null","377","stimuli/bar_6.jpg","","","","",""
"","","","","","image-keyboard-response","435","2.0.0","444590","pwnth7f2j08","seal","null","stimuli/bar_6.jpg","null","bar","I","repeat"," ","377","","","","","",""
"","","","","","image-keyboard-response","436","2.0.0","445593","pwnth7f2j08","seal","null","stimuli/coast_23.jpg","null","coast","A","non-repeat","null","378","stimuli/coast_23.jpg","","","","",""
"","","","","","image-keyboard-response","437","2.0.0","446596","pwnth7f2j08","seal","null","stimuli/stream_36.jpg","null","stream","B","non-repeat","null","379","stimuli/stream_36.jpg","","","","",""
"","","","","","image-keyboard-response","438","2.0.0","447598","pwnth7f2j08","seal","null","stimuli/kitchen_23.jpg","null","kitchen","C","non-repeat","null","380","stimuli/kitchen_23.jpg","","","","",""
"","","","","","image-keyboard-response","439","2.0.0","448601","pwnth7f2j08","seal","null","stimuli/desert_58.jpg","null","desert","J","non-repeat","null","381","stimuli/desert_58.jpg","","","","",""
"","","","","","image-keyboard-response","440","2.0.0","449604","pwnth7f2j08","seal","null","stimuli/playground_24.jpg","null","playground","K","non-repeat","null","382","stimuli/playground_24.jpg","","","","",""
"","","","","","image-keyboard-response","441","2.0.0","450608","pwnth7f2j08","seal","null","stimuli/street_13.jpg","null","street","L","non-repeat","null","383","stimuli/street_13.jpg","","","","",""
"","","","","","image-keyboard-response","442","2.0.0","451610","pwnth7f2j08","seal","null","stimuli/bridge_39.jpg","null","bridge","G","non-repeat","null","384","stimuli/bridge_39.jpg","","","","",""
"","","","","","image-keyboard-response","443","2.0.0","452612","pwnth7f2j08","seal","null","stimuli/bridge_39.jpg","null","bridge","G","repeat"," ","384","","","","","",""
"","","","","","image-keyboard-response","444","2.0.0","453615","pwnth7f2j08","seal","null","stimuli/gym_51.jpg","null","gym","H","non-repeat","null","385","stimuli/gym_51.jpg","","","","",""
"","","","","","image-keyboard-response","445","2.0.0","454617","pwnth7f2j08","seal","null","stimuli/bar_6.jpg","null","bar","I","non-repeat","null","386","stimuli/bar_6.jpg","","","","",""
"","","","","","image-keyboard-response","446","2.0.0","455620","pwnth7f2j08","seal","null","stimuli/desert_58.jpg","null","desert","J","non-repeat","null","387","stimuli/desert_58.jpg","","","","",""
"","","","","","image-keyboard-response","447","2.0.0","456623","pwnth7f2j08","seal","null","stimuli/playground_24.jpg","null","playground","K","non-repeat","null","388","stimuli/playground_24.jpg","","","","",""
"","","","","","image-keyboard-response","448","2.0.0","457627","pwnth7f2j08","seal","null","stimuli/street_13.jpg","null","street","L","non-repeat","null","389","stimuli/street_13.jpg","","","","",""
"","","","","","html-keyboard-response","449","2.0.0","476909","pwnth7f2j08","seal","19281","
    <div style='width:900px;margin: auto;'><p>In the next part of the experiment, we want to see how well you learned the structure in the stream of images.</p>
    <p>On each trial, you will see two sequences of three images, sequence 1 and 2. We will ask you to indicate which sequence was more familiar based on the first part of the experiment.</p>
    <p>Press 1 if the first sequence (sequence 1) felt more familiar. Press 2 if the second sequence (sequence 2) felt more familiar.</p>
    <p>Press any key to begin.</p></div>","1","","","","","","","","","","",""
"","","","","","html-keyboard-response","450","2.0.0","477912","pwnth7f2j08","seal","null","<p>Sequence 1</p>","null","","","","","","","","","","",""
"","","","","","image-keyboard-response","451","2.0.0","478914","pwnth7f2j08","seal","null","stimuli/desert_58.jpg","null","","","","","","","","","","",""
"","","","","","image-keyboard-response","452","2.0.0","479917","pwnth7f2j08","seal","null","stimuli/stream_36.jpg","null","","","","","","","","","","",""
"","","","","","image-keyboard-response","453","2.0.0","480919","pwnth7f2j08","seal","null","stimuli/bathroom_38.jpg","null","","","","","","","","","","",""
"","","","","","html-keyboard-response","454","2.0.0","481921","pwnth7f2j08","seal","null","<p></p>","null","","","","","","","","","","",""
"","","","","","html-keyboard-response","455","2.0.0","482923","pwnth7f2j08","seal","null","<p>Sequence 2</p>","null","","","","","","","","","","",""
"","","","","","image-keyboard-response","456","2.0.0","483926","pwnth7f2j08","seal","null","stimuli/desert_58.jpg","null","","","","","","","","","","",""
"","","","","","image-keyboard-response","457","2.0.0","484929","pwnth7f2j08","seal","null","stimuli/playground_24.jpg","null","","","","","","","","","","",""
"","","","","","image-keyboard-response","458","2.0.0","485932","pwnth7f2j08","seal","null","stimuli/street_13.jpg","null","","","","","","","","","","",""
"","","","","","html-keyboard-response","459","2.0.0","487311","pwnth7f2j08","seal","1378","<p>Press '1' if the first sequence was familiar, '2' if the second was.</p>","1","","","2","","","","[""J"",""K"",""L""]","[""J"",""B"",""F""]","false","[""<p>Sequence 1</p>"",""stimuli/desert_58.jpg"",""stimuli/stream_36.jpg"",""stimuli/bathroom_38.jpg""]","[""<p>Sequence 2</p>"",""stimuli/desert_58.jpg"",""stimuli/playground_24.jpg"",""stimuli/street_13.jpg""]"
"","","","","","html-keyboard-response","460","2.0.0","488313","pwnth7f2j08","seal","null","<p>Sequence 1</p>","null","","","","","","","","","","",""
"","","","","","image-keyboard-response","461","2.0.0","489316","pwnth7f2j08","seal","null","stimuli/desert_58.jpg","null","","","","","","","","","","",""
"","","","","","image-keyboard-response","462","2.0.0","490318","pwnth7f2j08","seal","null","stimuli/playground_24.jpg","null","","","","","","","","","","",""
"","","","","","image-keyboard-response","463","2.0.0","491320","pwnth7f2j08","seal","null","stimuli/street_13.jpg","null","","","","","","","","","","",""
"","","","","","html-keyboard-response","464","2.0.0","492323","pwnth7f2j08","seal","null","<p></p>","null","","","","","","","","","","",""
"","","","","","html-keyboard-response","465","2.0.0","493325","pwnth7f2j08","seal","null","<p>Sequence 2</p>","null","","","","","","","","","","",""
"","","","","","image-keyboard-response","466","2.0.0","494328","pwnth7f2j08","seal","null","stimuli/coast_23.jpg","null","","","","","","","","","","",""
"","","","","","image-keyboard-response","467","2.0.0","495330","pwnth7f2j08","seal","null","stimuli/woods_17.jpg","null","","","","","","","","","","",""
"","","","","","image-keyboard-response","468","2.0.0","496333","pwnth7f2j08","seal","null","stimuli/bar_6.jpg","null","","","","","","","","","","",""
"","","","","","html-keyboard-response","469","2.0.0","496683","pwnth7f2j08","seal","350","<p>Press '1' if the first sequence was familiar, '2' if the second was.</p>","1","","","1","","","","[""J"",""K"",""L""]","[""A"",""E"",""I""]","true","[""<p>Sequence 1</p>"",""stimuli/desert_58.jpg"",""stimuli/playground_24.jpg"",""stimuli/street_13.jpg""]","[""<p>Sequence 2</p>"",""stimuli/coast_23.jpg"",""stimuli/woods_17.jpg"",""stimuli/bar_6.jpg""]"
"","","","","","html-keyboard-response","470","2.0.0","497686","pwnth7f2j08","seal","null","<p>Sequence 1</p>","null","","","","","","","","","","",""
"","","","","","image-keyboard-response","471","2.0.0","498688","pwnth7f2j08","seal","null","stimuli/coast_23.jpg","null","","","","","","","","","","",""
"","","","","","image-keyboard-response","472","2.0.0","499690","pwnth7f2j08","seal","null","stimuli/stream_36.jpg","null","","","","","","","","","","",""
"","","","","","image-keyboard-response","473","2.0.0","500692","pwnth7f2j08","seal","null","stimuli/kitchen_23.jpg","null","","","","","","","","","","",""
"","","","","","html-keyboard-response","474","2.0.0","501694","pwnth7f2j08","seal","null","<p></p>","null","","","","","","","","","","",""
"","","","","","html-keyboard-response","475","2.0.0","502697","pwnth7f2j08","seal","null","<p>Sequence 2</p>","null","","","","","","","","","","",""
"","","","","","image-keyboard-response","476","2.0.0","503699","pwnth7f2j08","seal","null","stimuli/coast_23.jpg","null","","","","","","","","","","",""
"","","","","","image-keyboard-response","477","2.0.0","504702","pwnth7f2j08","seal","null","stimuli/woods_17.jpg","null","","","","","","","","","","",""
"","","","","","image-keyboard-response","478","2.0.0","505704","pwnth7f2j08","seal","null","stimuli/bar_6.jpg","null","","","","","","","","","","",""
"","","","","","html-keyboard-response","479","2.0.0","506001","pwnth7f2j08","seal","296","<p>Press '1' if the first sequence was familiar, '2' if the second was.</p>","1","","","1","","","","[""A"",""B"",""C""]","[""A"",""E"",""I""]","true","[""<p>Sequence 1</p>"",""stimuli/coast_23.jpg"",""stimuli/stream_36.jpg"",""stimuli/kitchen_23.jpg""]","[""<p>Sequence 2</p>"",""stimuli/coast_23.jpg"",""stimuli/woods_17.jpg"",""stimuli/bar_6.jpg""]"
"","","","","","html-keyboard-response","480","2.0.0","507004","pwnth7f2j08","seal","null","<p>Sequence 1</p>","null","","","","","","","","","","",""
"","","","","","image-keyboard-response","481","2.0.0","508006","pwnth7f2j08","seal","null","stimuli/field_19.jpg","null","","","","","","","","","","",""
"","","","","","image-keyboard-response","482","2.0.0","509008","pwnth7f2j08","seal","null","stimuli/woods_17.jpg","null","","","","","","","","","","",""
"","","","","","image-keyboard-response","483","2.0.0","510010","pwnth7f2j08","seal","null","stimuli/bathroom_38.jpg","null","","","","","","","","","","",""
"","","","","","html-keyboard-response","484","2.0.0","511012","pwnth7f2j08","seal","null","<p></p>","null","","","","","","","","","","",""
"","","","","","html-keyboard-response","485","2.0.0","512015","pwnth7f2j08","seal","null","<p>Sequence 2</p>","null","","","","","","","","","","",""
"","","","","","image-keyboard-response","486","2.0.0","513017","pwnth7f2j08","seal","null","stimuli/bridge_39.jpg","null","","","","","","","","","","",""
"","","","","","image-keyboard-response","487","2.0.0","514020","pwnth7f2j08","seal","null","stimuli/playground_24.jpg","null","","","","","","","","","","",""
"","","","","","image-keyboard-response","488","2.0.0","515023","pwnth7f2j08","seal","null","stimuli/kitchen_23.jpg","null","","","","","","","","","","",""
"","","","","","html-keyboard-response","489","2.0.0","515330","pwnth7f2j08","seal","306","<p>Press '1' if the first sequence was familiar, '2' if the second was.</p>","1","","","1","","","","[""D"",""E"",""F""]","[""G"",""K"",""C""]","true","[""<p>Sequence 1</p>"",""stimuli/field_19.jpg"",""stimuli/woods_17.jpg"",""stimuli/bathroom_38.jpg""]","[""<p>Sequence 2</p>"",""stimuli/bridge_39.jpg"",""stimuli/playground_24.jpg"",""stimuli/kitchen_23.jpg""]"
"","","","","","html-keyboard-response","490","2.0.0","516332","pwnth7f2j08","seal","null","<p>Sequence 1</p>","null","","","","","","","","","","",""
"","","","","","image-keyboard-response","491","2.0.0","517335","pwnth7f2j08","seal","null","stimuli/coast_23.jpg","null","","","","","","","","","","",""
"","","","","","image-keyboard-response","492","2.0.0","518337","pwnth7f2j08","seal","null","stimuli/stream_36.jpg","null","","","","","","","","","","",""
"","","","","","image-keyboard-response","493","2.0.0","519340","pwnth7f2j08","seal","null","stimuli/kitchen_23.jpg","null","","","","","","","","","","",""
"","","","","","html-keyboard-response","494","2.0.0","520342","pwnth7f2j08","seal","null","<p></p>","null","","","","","","","","","","",""
"","","","","","html-keyboard-response","495","2.0.0","521344","pwnth7f2j08","seal","null","<p>Sequence 2</p>","null","","","","","","","","","","",""
"","","","","","image-keyboard-response","496","2.0.0","522347","pwnth7f2j08","seal","null","stimuli/desert_58.jpg","null","","","","","","","","","","",""
"","","","","","image-keyboard-response","497","2.0.0","523350","pwnth7f2j08","seal","null","stimuli/stream_36.jpg","null","","","","","","","","","","",""
"","","","","","image-keyboard-response","498","2.0.0","524352","pwnth7f2j08","seal","null","stimuli/bathroom_38.jpg","null","","","","","","","","","","",""
"","","","","","html-keyboard-response","499","2.0.0","524597","pwnth7f2j08","seal","245","<p>Press '1' if the first sequence was familiar, '2' if the second was.</p>","1","","","1","","","","[""A"",""B"",""C""]","[""J"",""B"",""F""]","true","[""<p>Sequence 1</p>"",""stimuli/coast_23.jpg"",""stimuli/stream_36.jpg"",""stimuli/kitchen_23.jpg""]","[""<p>Sequence 2</p>"",""stimuli/desert_58.jpg"",""stimuli/stream_36.jpg"",""stimuli/bathroom_38.jpg""]"
"","","","","","html-keyboard-response","500","2.0.0","525599","pwnth7f2j08","seal","null","<p>Sequence 1</p>","null","","","","","","","","","","",""
"","","","","","image-keyboard-response","501","2.0.0","526602","pwnth7f2j08","seal","null","stimuli/field_19.jpg","null","","","","","","","","","","",""
"","","","","","image-keyboard-response","502","2.0.0","527604","pwnth7f2j08","seal","null","stimuli/gym_51.jpg","null","","","","","","","","","","",""
"","","","","","image-keyboard-response","503","2.0.0","528606","pwnth7f2j08","seal","null","stimuli/street_13.jpg","null","","","","","","","","","","",""
"","","","","","html-keyboard-response","504","2.0.0","529609","pwnth7f2j08","seal","null","<p></p>","null","","","","","","","","","","",""
"","","","","","html-keyboard-response","505","2.0.0","530611","pwnth7f2j08","seal","null","<p>Sequence 2</p>","null","","","","","","","","","","",""
"","","","","","image-keyboard-response","506","2.0.0","531614","pwnth7f2j08","seal","null","stimuli/bridge_39.jpg","null","","","","","","","","","","",""
"","","","","","image-keyboard-response","507","2.0.0","532616","pwnth7f2j08","seal","null","stimuli/gym_51.jpg","null","","","","","","","","","","",""
"","","","","","image-keyboard-response","508","2.0.0","533618","pwnth7f2j08","seal","null","stimuli/bar_6.jpg","null","","","","","","","","","","",""
