"success","timeout","failed_images","failed_audio","failed_video","trial_type","trial_index","plugin_version","time_elapsed","random_id","participant","rt","stimulus","response","category","letter","correct_response","correct_response_key","trial_counter","current_image","test_triplet","foil_triplet","correct","firstSequencePaths","secondSequencePaths"
"true","false","[]","[]","[]","preload","0","2.0.0","451","px2utorg010","axolotl","","","","","","","","","","","","","",""
"true","","","","","fullscreen","1","null","2303","px2utorg010","axolotl","851","","","","","","","","","","","","",""
"","","","","","html-keyboard-response","2","2.0.0","2868","px2utorg010","axolotl","564","Welcome to the experiment. Press any key to begin."," ","","","","","","","","","","",""
"","","","","","survey-text","3","2.0.0","7122","px2utorg010","axolotl","4253","","{""participant_id"":""axolotl""}","","","","","","","","","","",""
"","","","","","html-keyboard-response","4","2.0.0","12711","px2utorg010","axolotl","5588","
  <p>For this trial, you will see a series of images.</p>
  <p><b>Press the spacebar whenever you see the same image appear twice in a row.</b></p>
  <p>In other words, whenever the same image repeats back to back, press the spacebar.</p>
  <p>Press any key to begin.</p>"," ","","","","","","","","","","",""
"","","","","","image-keyboard-response","5","2.0.0","13727","px2utorg010","axolotl","null","stimuli/playground_30.jpg","null","playground","J","non-repeat","null","0","stimuli/playground_30.jpg","","","","",""
"","","","","","image-keyboard-response","6","2.0.0","14741","px2utorg010","axolotl","905","stimuli/playground_30.jpg"," ","playground","J","repeat"," ","0","","","","","",""
"","","","","","image-keyboard-response","7","2.0.0","15747","px2utorg010","axolotl","null","stimuli/bar_50.jpg","null","bar","K","non-repeat","null","1","stimuli/bar_50.jpg","","","","",""
"","","","","","image-keyboard-response","8","2.0.0","16752","px2utorg010","axolotl","null","stimuli/coast_33.jpg","null","coast","L","non-repeat","null","2","stimuli/coast_33.jpg","","","","",""
"","","","","","image-keyboard-response","9","2.0.0","17760","px2utorg010","axolotl","484","stimuli/coast_33.jpg"," ","coast","L","repeat"," ","2","","","","","",""
"","","","","","image-keyboard-response","10","2.0.0","18770","px2utorg010","axolotl","null","stimuli/bathroom_42.jpg","null","bathroom","A","non-repeat","null","3","stimuli/bathroom_42.jpg","","","","",""
"","","","","","image-keyboard-response","11","2.0.0","19779","px2utorg010","axolotl","472","stimuli/field_52.jpg"," ","field","B","non-repeat","null","4","stimuli/field_52.jpg","","","","",""
"","","","","","image-keyboard-response","12","2.0.0","20789","px2utorg010","axolotl","null","stimuli/gym_18.jpg","null","gym","C","non-repeat","null","5","stimuli/gym_18.jpg","","","","",""
"","","","","","image-keyboard-response","13","2.0.0","21803","px2utorg010","axolotl","null","stimuli/kitchen_54.jpg","null","kitchen","D","non-repeat","null","6","stimuli/kitchen_54.jpg","","","","",""
"","","","","","image-keyboard-response","14","2.0.0","22816","px2utorg010","axolotl","null","stimuli/street_2.jpg","null","street","E","non-repeat","null","7","stimuli/street_2.jpg","","","","",""
"","","","","","image-keyboard-response","15","2.0.0","23818","px2utorg010","axolotl","null","stimuli/bridge_47.jpg","null","bridge","F","non-repeat","null","8","stimuli/bridge_47.jpg","","","","",""
"","","","","","image-keyboard-response","16","2.0.0","24829","px2utorg010","axolotl","null","stimuli/woods_64.jpg","null","woods","G","non-repeat","null","9","stimuli/woods_64.jpg","","","","",""
"","","","","","image-keyboard-response","17","2.0.0","25841","px2utorg010","axolotl","null","stimuli/stream_35.jpg","null","stream","H","non-repeat","null","10","stimuli/stream_35.jpg","","","","",""
"","","","","","image-keyboard-response","18","2.0.0","26851","px2utorg010","axolotl","null","stimuli/desert_28.jpg","null","desert","I","non-repeat","null","11","stimuli/desert_28.jpg","","","","",""
"","","","","","image-keyboard-response","19","2.0.0","27863","px2utorg010","axolotl","null","stimuli/bathroom_42.jpg","null","bathroom","A","non-repeat","null","12","stimuli/bathroom_42.jpg","","","","",""
"","","","","","image-keyboard-response","20","2.0.0","28873","px2utorg010","axolotl","null","stimuli/field_52.jpg","null","field","B","non-repeat","null","13","stimuli/field_52.jpg","","","","",""
"","","","","","image-keyboard-response","21","2.0.0","29877","px2utorg010","axolotl","null","stimuli/gym_18.jpg","null","gym","C","non-repeat","null","14","stimuli/gym_18.jpg","","","","",""
"","","","","","image-keyboard-response","22","2.0.0","30892","px2utorg010","axolotl","null","stimuli/playground_30.jpg","null","playground","J","non-repeat","null","15","stimuli/playground_30.jpg","","","","",""
"","","","","","image-keyboard-response","23","2.0.0","31902","px2utorg010","axolotl","312","stimuli/playground_30.jpg"," ","playground","J","repeat"," ","15","","","","","",""
"","","","","","image-keyboard-response","24","2.0.0","32917","px2utorg010","axolotl","null","stimuli/bar_50.jpg","null","bar","K","non-repeat","null","16","stimuli/bar_50.jpg","","","","",""
"","","","","","image-keyboard-response","25","2.0.0","33929","px2utorg010","axolotl","null","stimuli/coast_33.jpg","null","coast","L","non-repeat","null","17","stimuli/coast_33.jpg","","","","",""
"","","","","","image-keyboard-response","26","2.0.0","34940","px2utorg010","axolotl","null","stimuli/bathroom_42.jpg","null","bathroom","A","non-repeat","null","18","stimuli/bathroom_42.jpg","","","","",""
"","","","","","image-keyboard-response","27","2.0.0","35956","px2utorg010","axolotl","null","stimuli/field_52.jpg","null","field","B","non-repeat","null","19","stimuli/field_52.jpg","","","","",""
"","","","","","image-keyboard-response","28","2.0.0","36969","px2utorg010","axolotl","null","stimuli/gym_18.jpg","null","gym","C","non-repeat","null","20","stimuli/gym_18.jpg","","","","",""
"","","","","","image-keyboard-response","29","2.0.0","37980","px2utorg010","axolotl","null","stimuli/kitchen_54.jpg","null","kitchen","D","non-repeat","null","21","stimuli/kitchen_54.jpg","","","","",""
"","","","","","image-keyboard-response","30","2.0.0","38985","px2utorg010","axolotl","null","stimuli/street_2.jpg","null","street","E","non-repeat","null","22","stimuli/street_2.jpg","","","","",""
"","","","","","image-keyboard-response","31","2.0.0","39999","px2utorg010","axolotl","null","stimuli/bridge_47.jpg","null","bridge","F","non-repeat","null","23","stimuli/bridge_47.jpg","","","","",""
"","","","","","image-keyboard-response","32","2.0.0","41009","px2utorg010","axolotl","null","stimuli/bathroom_42.jpg","null","bathroom","A","non-repeat","null","24","stimuli/bathroom_42.jpg","","","","",""
"","","","","","image-keyboard-response","33","2.0.0","42022","px2utorg010","axolotl","291","stimuli/bathroom_42.jpg"," ","bathroom","A","repeat"," ","24","","","","","",""
"","","","","","image-keyboard-response","34","2.0.0","43037","px2utorg010","axolotl","null","stimuli/field_52.jpg","null","field","B","non-repeat","null","25","stimuli/field_52.jpg","","","","",""
"","","","","","image-keyboard-response","35","2.0.0","44048","px2utorg010","axolotl","null","stimuli/gym_18.jpg","null","gym","C","non-repeat","null","26","stimuli/gym_18.jpg","","","","",""
"","","","","","image-keyboard-response","36","2.0.0","45063","px2utorg010","axolotl","null","stimuli/woods_64.jpg","null","woods","G","non-repeat","null","27","stimuli/woods_64.jpg","","","","",""
"","","","","","image-keyboard-response","37","2.0.0","46070","px2utorg010","axolotl","null","stimuli/stream_35.jpg","null","stream","H","non-repeat","null","28","stimuli/stream_35.jpg","","","","",""
"","","","","","image-keyboard-response","38","2.0.0","47084","px2utorg010","axolotl","null","stimuli/desert_28.jpg","null","desert","I","non-repeat","null","29","stimuli/desert_28.jpg","","","","",""
"","","","","","image-keyboard-response","39","2.0.0","48093","px2utorg010","axolotl","null","stimuli/playground_30.jpg","null","playground","J","non-repeat","null","30","stimuli/playground_30.jpg","","","","",""
"","","","","","image-keyboard-response","40","2.0.0","49106","px2utorg010","axolotl","null","stimuli/bar_50.jpg","null","bar","K","non-repeat","null","31","stimuli/bar_50.jpg","","","","",""
"","","","","","image-keyboard-response","41","2.0.0","50114","px2utorg010","axolotl","null","stimuli/coast_33.jpg","null","coast","L","non-repeat","null","32","stimuli/coast_33.jpg","","","","",""
"","","","","","image-keyboard-response","42","2.0.0","51128","px2utorg010","axolotl","null","stimuli/bathroom_42.jpg","null","bathroom","A","non-repeat","null","33","stimuli/bathroom_42.jpg","","","","",""
"","","","","","image-keyboard-response","43","2.0.0","52137","px2utorg010","axolotl","null","stimuli/field_52.jpg","null","field","B","non-repeat","null","34","stimuli/field_52.jpg","","","","",""
"","","","","","image-keyboard-response","44","2.0.0","53151","px2utorg010","axolotl","null","stimuli/gym_18.jpg","null","gym","C","non-repeat","null","35","stimuli/gym_18.jpg","","","","",""
"","","","","","image-keyboard-response","45","2.0.0","54161","px2utorg010","axolotl","null","stimuli/playground_30.jpg","null","playground","J","non-repeat","null","36","stimuli/playground_30.jpg","","","","",""
"","","","","","image-keyboard-response","46","2.0.0","55174","px2utorg010","axolotl","null","stimuli/bar_50.jpg","null","bar","K","non-repeat","null","37","stimuli/bar_50.jpg","","","","",""
"","","","","","image-keyboard-response","47","2.0.0","56188","px2utorg010","axolotl","null","stimuli/coast_33.jpg","null","coast","L","non-repeat","null","38","stimuli/coast_33.jpg","","","","",""
"","","","","","image-keyboard-response","48","2.0.0","57198","px2utorg010","axolotl","null","stimuli/woods_64.jpg","null","woods","G","non-repeat","null","39","stimuli/woods_64.jpg","","","","",""
"","","","","","image-keyboard-response","49","2.0.0","58205","px2utorg010","axolotl","485","stimuli/woods_64.jpg"," ","woods","G","repeat"," ","39","","","","","",""
"","","","","","image-keyboard-response","50","2.0.0","59213","px2utorg010","axolotl","null","stimuli/stream_35.jpg","null","stream","H","non-repeat","null","40","stimuli/stream_35.jpg","","","","",""
"","","","","","image-keyboard-response","51","2.0.0","60223","px2utorg010","axolotl","null","stimuli/desert_28.jpg","null","desert","I","non-repeat","null","41","stimuli/desert_28.jpg","","","","",""
"","","","","","image-keyboard-response","52","2.0.0","61237","px2utorg010","axolotl","null","stimuli/kitchen_54.jpg","null","kitchen","D","non-repeat","null","42","stimuli/kitchen_54.jpg","","","","",""
"","","","","","image-keyboard-response","53","2.0.0","62249","px2utorg010","axolotl","null","stimuli/street_2.jpg","null","street","E","non-repeat","null","43","stimuli/street_2.jpg","","","","",""
"","","","","","image-keyboard-response","54","2.0.0","63264","px2utorg010","axolotl","null","stimuli/bridge_47.jpg","null","bridge","F","non-repeat","null","44","stimuli/bridge_47.jpg","","","","",""
"","","","","","image-keyboard-response","55","2.0.0","64275","px2utorg010","axolotl","null","stimuli/playground_30.jpg","null","playground","J","non-repeat","null","45","stimuli/playground_30.jpg","","","","",""
"","","","","","image-keyboard-response","56","2.0.0","65288","px2utorg010","axolotl","null","stimuli/bar_50.jpg","null","bar","K","non-repeat","null","46","stimuli/bar_50.jpg","","","","",""
"","","","","","image-keyboard-response","57","2.0.0","66299","px2utorg010","axolotl","null","stimuli/coast_33.jpg","null","coast","L","non-repeat","null","47","stimuli/coast_33.jpg","","","","",""
"","","","","","image-keyboard-response","58","2.0.0","67308","px2utorg010","axolotl","null","stimuli/bathroom_42.jpg","null","bathroom","A","non-repeat","null","48","stimuli/bathroom_42.jpg","","","","",""
"","","","","","image-keyboard-response","59","2.0.0","68320","px2utorg010","axolotl","null","stimuli/field_52.jpg","null","field","B","non-repeat","null","49","stimuli/field_52.jpg","","","","",""
"","","","","","image-keyboard-response","60","2.0.0","69331","px2utorg010","axolotl","null","stimuli/gym_18.jpg","null","gym","C","non-repeat","null","50","stimuli/gym_18.jpg","","","","",""
"","","","","","image-keyboard-response","61","2.0.0","70336","px2utorg010","axolotl","null","stimuli/kitchen_54.jpg","null","kitchen","D","non-repeat","null","51","stimuli/kitchen_54.jpg","","","","",""
"","","","","","image-keyboard-response","62","2.0.0","71345","px2utorg010","axolotl","null","stimuli/street_2.jpg","null","street","E","non-repeat","null","52","stimuli/street_2.jpg","","","","",""
"","","","","","image-keyboard-response","63","2.0.0","72356","px2utorg010","axolotl","null","stimuli/bridge_47.jpg","null","bridge","F","non-repeat","null","53","stimuli/bridge_47.jpg","","","","",""
"","","","","","image-keyboard-response","64","2.0.0","73368","px2utorg010","axolotl","null","stimuli/playground_30.jpg","null","playground","J","non-repeat","null","54","stimuli/playground_30.jpg","","","","",""
"","","","","","image-keyboard-response","65","2.0.0","74380","px2utorg010","axolotl","299","stimuli/playground_30.jpg"," ","playground","J","repeat"," ","54","","","","","",""
"","","","","","image-keyboard-response","66","2.0.0","75396","px2utorg010","axolotl","null","stimuli/bar_50.jpg","null","bar","K","non-repeat","null","55","stimuli/bar_50.jpg","","","","",""
"","","","","","image-keyboard-response","67","2.0.0","76406","px2utorg010","axolotl","null","stimuli/coast_33.jpg","null","coast","L","non-repeat","null","56","stimuli/coast_33.jpg","","","","",""
"","","","","","image-keyboard-response","68","2.0.0","77411","px2utorg010","axolotl","null","stimuli/kitchen_54.jpg","null","kitchen","D","non-repeat","null","57","stimuli/kitchen_54.jpg","","","","",""
"","","","","","image-keyboard-response","69","2.0.0","78421","px2utorg010","axolotl","null","stimuli/street_2.jpg","null","street","E","non-repeat","null","58","stimuli/street_2.jpg","","","","",""
"","","","","","image-keyboard-response","70","2.0.0","79435","px2utorg010","axolotl","null","stimuli/bridge_47.jpg","null","bridge","F","non-repeat","null","59","stimuli/bridge_47.jpg","","","","",""
"","","","","","image-keyboard-response","71","2.0.0","80448","px2utorg010","axolotl","null","stimuli/playground_30.jpg","null","playground","J","non-repeat","null","60","stimuli/playground_30.jpg","","","","",""
"","","","","","image-keyboard-response","72","2.0.0","81463","px2utorg010","axolotl","270","stimuli/playground_30.jpg"," ","playground","J","repeat"," ","60","","","","","",""
"","","","","","image-keyboard-response","73","2.0.0","82471","px2utorg010","axolotl","null","stimuli/bar_50.jpg","null","bar","K","non-repeat","null","61","stimuli/bar_50.jpg","","","","",""
"","","","","","image-keyboard-response","74","2.0.0","83484","px2utorg010","axolotl","null","stimuli/coast_33.jpg","null","coast","L","non-repeat","null","62","stimuli/coast_33.jpg","","","","",""
"","","","","","image-keyboard-response","75","2.0.0","84495","px2utorg010","axolotl","455","stimuli/coast_33.jpg"," ","coast","L","repeat"," ","62","","","","","",""
"","","","","","image-keyboard-response","76","2.0.0","85503","px2utorg010","axolotl","null","stimuli/kitchen_54.jpg","null","kitchen","D","non-repeat","null","63","stimuli/kitchen_54.jpg","","","","",""
"","","","","","image-keyboard-response","77","2.0.0","86513","px2utorg010","axolotl","null","stimuli/street_2.jpg","null","street","E","non-repeat","null","64","stimuli/street_2.jpg","","","","",""
"","","","","","image-keyboard-response","78","2.0.0","87529","px2utorg010","axolotl","null","stimuli/bridge_47.jpg","null","bridge","F","non-repeat","null","65","stimuli/bridge_47.jpg","","","","",""
"","","","","","image-keyboard-response","79","2.0.0","88541","px2utorg010","axolotl","null","stimuli/playground_30.jpg","null","playground","J","non-repeat","null","66","stimuli/playground_30.jpg","","","","",""
"","","","","","image-keyboard-response","80","2.0.0","89552","px2utorg010","axolotl","null","stimuli/bar_50.jpg","null","bar","K","non-repeat","null","67","stimuli/bar_50.jpg","","","","",""
"","","","","","image-keyboard-response","81","2.0.0","90558","px2utorg010","axolotl","null","stimuli/coast_33.jpg","null","coast","L","non-repeat","null","68","stimuli/coast_33.jpg","","","","",""
"","","","","","image-keyboard-response","82","2.0.0","91566","px2utorg010","axolotl","null","stimuli/woods_64.jpg","null","woods","G","non-repeat","null","69","stimuli/woods_64.jpg","","","","",""
"","","","","","image-keyboard-response","83","2.0.0","92579","px2utorg010","axolotl","null","stimuli/stream_35.jpg","null","stream","H","non-repeat","null","70","stimuli/stream_35.jpg","","","","",""
"","","","","","image-keyboard-response","84","2.0.0","93588","px2utorg010","axolotl","null","stimuli/desert_28.jpg","null","desert","I","non-repeat","null","71","stimuli/desert_28.jpg","","","","",""
"","","","","","image-keyboard-response","85","2.0.0","94597","px2utorg010","axolotl","null","stimuli/kitchen_54.jpg","null","kitchen","D","non-repeat","null","72","stimuli/kitchen_54.jpg","","","","",""
"","","","","","image-keyboard-response","86","2.0.0","95607","px2utorg010","axolotl","null","stimuli/street_2.jpg","null","street","E","non-repeat","null","73","stimuli/street_2.jpg","","","","",""
"","","","","","image-keyboard-response","87","2.0.0","96619","px2utorg010","axolotl","null","stimuli/bridge_47.jpg","null","bridge","F","non-repeat","null","74","stimuli/bridge_47.jpg","","","","",""
"","","","","","image-keyboard-response","88","2.0.0","97627","px2utorg010","axolotl","null","stimuli/playground_30.jpg","null","playground","J","non-repeat","null","75","stimuli/playground_30.jpg","","","","",""
"","","","","","image-keyboard-response","89","2.0.0","98638","px2utorg010","axolotl","null","stimuli/bar_50.jpg","null","bar","K","non-repeat","null","76","stimuli/bar_50.jpg","","","","",""
"","","","","","image-keyboard-response","90","2.0.0","99649","px2utorg010","axolotl","null","stimuli/coast_33.jpg","null","coast","L","non-repeat","null","77","stimuli/coast_33.jpg","","","","",""
"","","","","","image-keyboard-response","91","2.0.0","100665","px2utorg010","axolotl","376","stimuli/coast_33.jpg"," ","coast","L","repeat"," ","77","","","","","",""
"","","","","","image-keyboard-response","92","2.0.0","101670","px2utorg010","axolotl","null","stimuli/bathroom_42.jpg","null","bathroom","A","non-repeat","null","78","stimuli/bathroom_42.jpg","","","","",""
"","","","","","image-keyboard-response","93","2.0.0","102681","px2utorg010","axolotl","null","stimuli/field_52.jpg","null","field","B","non-repeat","null","79","stimuli/field_52.jpg","","","","",""
"","","","","","image-keyboard-response","94","2.0.0","103689","px2utorg010","axolotl","null","stimuli/gym_18.jpg","null","gym","C","non-repeat","null","80","stimuli/gym_18.jpg","","","","",""
"","","","","","image-keyboard-response","95","2.0.0","104698","px2utorg010","axolotl","null","stimuli/woods_64.jpg","null","woods","G","non-repeat","null","81","stimuli/woods_64.jpg","","","","",""
"","","","","","image-keyboard-response","96","2.0.0","105708","px2utorg010","axolotl","343","stimuli/woods_64.jpg"," ","woods","G","repeat"," ","81","","","","","",""
"","","","","","image-keyboard-response","97","2.0.0","106716","px2utorg010","axolotl","null","stimuli/stream_35.jpg","null","stream","H","non-repeat","null","82","stimuli/stream_35.jpg","","","","",""
"","","","","","image-keyboard-response","98","2.0.0","107725","px2utorg010","axolotl","null","stimuli/desert_28.jpg","null","desert","I","non-repeat","null","83","stimuli/desert_28.jpg","","","","",""
"","","","","","image-keyboard-response","99","2.0.0","108731","px2utorg010","axolotl","null","stimuli/playground_30.jpg","null","playground","J","non-repeat","null","84","stimuli/playground_30.jpg","","","","",""
"","","","","","image-keyboard-response","100","2.0.0","109740","px2utorg010","axolotl","null","stimuli/bar_50.jpg","null","bar","K","non-repeat","null","85","stimuli/bar_50.jpg","","","","",""
"","","","","","image-keyboard-response","101","2.0.0","110754","px2utorg010","axolotl","null","stimuli/coast_33.jpg","null","coast","L","non-repeat","null","86","stimuli/coast_33.jpg","","","","",""
"","","","","","image-keyboard-response","102","2.0.0","111767","px2utorg010","axolotl","null","stimuli/bathroom_42.jpg","null","bathroom","A","non-repeat","null","87","stimuli/bathroom_42.jpg","","","","",""
"","","","","","image-keyboard-response","103","2.0.0","112776","px2utorg010","axolotl","533","stimuli/bathroom_42.jpg"," ","bathroom","A","repeat"," ","87","","","","","",""
"","","","","","image-keyboard-response","104","2.0.0","113786","px2utorg010","axolotl","null","stimuli/field_52.jpg","null","field","B","non-repeat","null","88","stimuli/field_52.jpg","","","","",""
"","","","","","image-keyboard-response","105","2.0.0","114797","px2utorg010","axolotl","null","stimuli/gym_18.jpg","null","gym","C","non-repeat","null","89","stimuli/gym_18.jpg","","","","",""
"","","","","","image-keyboard-response","106","2.0.0","115808","px2utorg010","axolotl","null","stimuli/kitchen_54.jpg","null","kitchen","D","non-repeat","null","90","stimuli/kitchen_54.jpg","","","","",""
"","","","","","image-keyboard-response","107","2.0.0","116817","px2utorg010","axolotl","null","stimuli/street_2.jpg","null","street","E","non-repeat","null","91","stimuli/street_2.jpg","","","","",""
"","","","","","image-keyboard-response","108","2.0.0","117829","px2utorg010","axolotl","null","stimuli/bridge_47.jpg","null","bridge","F","non-repeat","null","92","stimuli/bridge_47.jpg","","","","",""
"","","","","","image-keyboard-response","109","2.0.0","118830","px2utorg010","axolotl","624","stimuli/bridge_47.jpg"," ","bridge","F","repeat"," ","92","","","","","",""
"","","","","","image-keyboard-response","110","2.0.0","119843","px2utorg010","axolotl","null","stimuli/bathroom_42.jpg","null","bathroom","A","non-repeat","null","93","stimuli/bathroom_42.jpg","","","","",""
"","","","","","image-keyboard-response","111","2.0.0","120856","px2utorg010","axolotl","null","stimuli/field_52.jpg","null","field","B","non-repeat","null","94","stimuli/field_52.jpg","","","","",""
"","","","","","image-keyboard-response","112","2.0.0","121867","px2utorg010","axolotl","null","stimuli/gym_18.jpg","null","gym","C","non-repeat","null","95","stimuli/gym_18.jpg","","","","",""
"","","","","","image-keyboard-response","113","2.0.0","122874","px2utorg010","axolotl","null","stimuli/kitchen_54.jpg","null","kitchen","D","non-repeat","null","96","stimuli/kitchen_54.jpg","","","","",""
"","","","","","image-keyboard-response","114","2.0.0","123879","px2utorg010","axolotl","null","stimuli/street_2.jpg","null","street","E","non-repeat","null","97","stimuli/street_2.jpg","","","","",""
"","","","","","image-keyboard-response","115","2.0.0","124893","px2utorg010","axolotl","null","stimuli/bridge_47.jpg","null","bridge","F","non-repeat","null","98","stimuli/bridge_47.jpg","","","","",""
"","","","","","image-keyboard-response","116","2.0.0","125902","px2utorg010","axolotl","null","stimuli/playground_30.jpg","null","playground","J","non-repeat","null","99","stimuli/playground_30.jpg","","","","",""
"","","","","","image-keyboard-response","117","2.0.0","126907","px2utorg010","axolotl","null","stimuli/bar_50.jpg","null","bar","K","non-repeat","null","100","stimuli/bar_50.jpg","","","","",""
"","","","","","image-keyboard-response","118","2.0.0","127917","px2utorg010","axolotl","null","stimuli/coast_33.jpg","null","coast","L","non-repeat","null","101","stimuli/coast_33.jpg","","","","",""
"","","","","","image-keyboard-response","119","2.0.0","128924","px2utorg010","axolotl","314","stimuli/coast_33.jpg"," ","coast","L","repeat"," ","101","","","","","",""
"","","","","","image-keyboard-response","120","2.0.0","129927","px2utorg010","axolotl","null","stimuli/bathroom_42.jpg","null","bathroom","A","non-repeat","null","102","stimuli/bathroom_42.jpg","","","","",""
"","","","","","image-keyboard-response","121","2.0.0","130935","px2utorg010","axolotl","null","stimuli/field_52.jpg","null","field","B","non-repeat","null","103","stimuli/field_52.jpg","","","","",""
"","","","","","image-keyboard-response","122","2.0.0","131947","px2utorg010","axolotl","null","stimuli/gym_18.jpg","null","gym","C","non-repeat","null","104","stimuli/gym_18.jpg","","","","",""
"","","","","","image-keyboard-response","123","2.0.0","132961","px2utorg010","axolotl","248","stimuli/gym_18.jpg"," ","gym","C","repeat"," ","104","","","","","",""
"","","","","","image-keyboard-response","124","2.0.0","133964","px2utorg010","axolotl","null","stimuli/kitchen_54.jpg","null","kitchen","D","non-repeat","null","105","stimuli/kitchen_54.jpg","","","","",""
"","","","","","image-keyboard-response","125","2.0.0","134972","px2utorg010","axolotl","null","stimuli/street_2.jpg","null","street","E","non-repeat","null","106","stimuli/street_2.jpg","","","","",""
"","","","","","image-keyboard-response","126","2.0.0","135983","px2utorg010","axolotl","null","stimuli/bridge_47.jpg","null","bridge","F","non-repeat","null","107","stimuli/bridge_47.jpg","","","","",""
"","","","","","image-keyboard-response","127","2.0.0","136992","px2utorg010","axolotl","null","stimuli/bathroom_42.jpg","null","bathroom","A","non-repeat","null","108","stimuli/bathroom_42.jpg","","","","",""
"","","","","","image-keyboard-response","128","2.0.0","138005","px2utorg010","axolotl","null","stimuli/field_52.jpg","null","field","B","non-repeat","null","109","stimuli/field_52.jpg","","","","",""
"","","","","","image-keyboard-response","129","2.0.0","139016","px2utorg010","axolotl","null","stimuli/gym_18.jpg","null","gym","C","non-repeat","null","110","stimuli/gym_18.jpg","","","","",""
"","","","","","image-keyboard-response","130","2.0.0","140027","px2utorg010","axolotl","null","stimuli/woods_64.jpg","null","woods","G","non-repeat","null","111","stimuli/woods_64.jpg","","","","",""
"","","","","","image-keyboard-response","131","2.0.0","141039","px2utorg010","axolotl","null","stimuli/stream_35.jpg","null","stream","H","non-repeat","null","112","stimuli/stream_35.jpg","","","","",""
"","","","","","image-keyboard-response","132","2.0.0","142052","px2utorg010","axolotl","null","stimuli/desert_28.jpg","null","desert","I","non-repeat","null","113","stimuli/desert_28.jpg","","","","",""
"","","","","","image-keyboard-response","133","2.0.0","143063","px2utorg010","axolotl","null","stimuli/bathroom_42.jpg","null","bathroom","A","non-repeat","null","114","stimuli/bathroom_42.jpg","","","","",""
"","","","","","image-keyboard-response","134","2.0.0","144071","px2utorg010","axolotl","null","stimuli/field_52.jpg","null","field","B","non-repeat","null","115","stimuli/field_52.jpg","","","","",""
"","","","","","image-keyboard-response","135","2.0.0","145078","px2utorg010","axolotl","null","stimuli/gym_18.jpg","null","gym","C","non-repeat","null","116","stimuli/gym_18.jpg","","","","",""
"","","","","","image-keyboard-response","136","2.0.0","146088","px2utorg010","axolotl","null","stimuli/kitchen_54.jpg","null","kitchen","D","non-repeat","null","117","stimuli/kitchen_54.jpg","","","","",""
"","","","","","image-keyboard-response","137","2.0.0","147101","px2utorg010","axolotl","null","stimuli/street_2.jpg","null","street","E","non-repeat","null","118","stimuli/street_2.jpg","","","","",""
"","","","","","image-keyboard-response","138","2.0.0","148109","px2utorg010","axolotl","null","stimuli/bridge_47.jpg","null","bridge","F","non-repeat","null","119","stimuli/bridge_47.jpg","","","","",""
"","","","","","image-keyboard-response","139","2.0.0","149116","px2utorg010","axolotl","null","stimuli/playground_30.jpg","null","playground","J","non-repeat","null","120","stimuli/playground_30.jpg","","","","",""
"","","","","","image-keyboard-response","140","2.0.0","150126","px2utorg010","axolotl","null","stimuli/bar_50.jpg","null","bar","K","non-repeat","null","121","stimuli/bar_50.jpg","","","","",""
"","","","","","image-keyboard-response","141","2.0.0","151137","px2utorg010","axolotl","null","stimuli/coast_33.jpg","null","coast","L","non-repeat","null","122","stimuli/coast_33.jpg","","","","",""
"","","","","","image-keyboard-response","142","2.0.0","152146","px2utorg010","axolotl","402","stimuli/coast_33.jpg"," ","coast","L","repeat"," ","122","","","","","",""
"","","","","","image-keyboard-response","143","2.0.0","153152","px2utorg010","axolotl","null","stimuli/kitchen_54.jpg","null","kitchen","D","non-repeat","null","123","stimuli/kitchen_54.jpg","","","","",""
"","","","","","image-keyboard-response","144","2.0.0","154160","px2utorg010","axolotl","397","stimuli/kitchen_54.jpg"," ","kitchen","D","repeat"," ","123","","","","","",""
"","","","","","image-keyboard-response","145","2.0.0","155167","px2utorg010","axolotl","null","stimuli/street_2.jpg","null","street","E","non-repeat","null","124","stimuli/street_2.jpg","","","","",""
"","","","","","image-keyboard-response","146","2.0.0","156178","px2utorg010","axolotl","null","stimuli/bridge_47.jpg","null","bridge","F","non-repeat","null","125","stimuli/bridge_47.jpg","","","","",""
"","","","","","image-keyboard-response","147","2.0.0","157190","px2utorg010","axolotl","null","stimuli/bathroom_42.jpg","null","bathroom","A","non-repeat","null","126","stimuli/bathroom_42.jpg","","","","",""
"","","","","","image-keyboard-response","148","2.0.0","158198","px2utorg010","axolotl","426","stimuli/bathroom_42.jpg"," ","bathroom","A","repeat"," ","126","","","","","",""
"","","","","","image-keyboard-response","149","2.0.0","159208","px2utorg010","axolotl","null","stimuli/field_52.jpg","null","field","B","non-repeat","null","127","stimuli/field_52.jpg","","","","",""
"","","","","","image-keyboard-response","150","2.0.0","160221","px2utorg010","axolotl","475","stimuli/gym_18.jpg"," ","gym","C","non-repeat","null","128","stimuli/gym_18.jpg","","","","",""
"","","","","","image-keyboard-response","151","2.0.0","161233","px2utorg010","axolotl","null","stimuli/woods_64.jpg","null","woods","G","non-repeat","null","129","stimuli/woods_64.jpg","","","","",""
"","","","","","image-keyboard-response","152","2.0.0","162242","px2utorg010","axolotl","null","stimuli/stream_35.jpg","null","stream","H","non-repeat","null","130","stimuli/stream_35.jpg","","","","",""
"","","","","","image-keyboard-response","153","2.0.0","163257","px2utorg010","axolotl","null","stimuli/desert_28.jpg","null","desert","I","non-repeat","null","131","stimuli/desert_28.jpg","","","","",""
"","","","","","image-keyboard-response","154","2.0.0","164268","px2utorg010","axolotl","null","stimuli/playground_30.jpg","null","playground","J","non-repeat","null","132","stimuli/playground_30.jpg","","","","",""
"","","","","","image-keyboard-response","155","2.0.0","165276","px2utorg010","axolotl","null","stimuli/bar_50.jpg","null","bar","K","non-repeat","null","133","stimuli/bar_50.jpg","","","","",""
"","","","","","image-keyboard-response","156","2.0.0","166285","px2utorg010","axolotl","null","stimuli/coast_33.jpg","null","coast","L","non-repeat","null","134","stimuli/coast_33.jpg","","","","",""
"","","","","","image-keyboard-response","157","2.0.0","167298","px2utorg010","axolotl","349","stimuli/coast_33.jpg"," ","coast","L","repeat"," ","134","","","","","",""
"","","","","","image-keyboard-response","158","2.0.0","168301","px2utorg010","axolotl","null","stimuli/kitchen_54.jpg","null","kitchen","D","non-repeat","null","135","stimuli/kitchen_54.jpg","","","","",""
"","","","","","image-keyboard-response","159","2.0.0","169310","px2utorg010","axolotl","null","stimuli/street_2.jpg","null","street","E","non-repeat","null","136","stimuli/street_2.jpg","","","","",""
"","","","","","image-keyboard-response","160","2.0.0","170321","px2utorg010","axolotl","null","stimuli/bridge_47.jpg","null","bridge","F","non-repeat","null","137","stimuli/bridge_47.jpg","","","","",""
"","","","","","image-keyboard-response","161","2.0.0","171330","px2utorg010","axolotl","398","stimuli/bridge_47.jpg"," ","bridge","F","repeat"," ","137","","","","","",""
"","","","","","image-keyboard-response","162","2.0.0","172340","px2utorg010","axolotl","null","stimuli/bathroom_42.jpg","null","bathroom","A","non-repeat","null","138","stimuli/bathroom_42.jpg","","","","",""
"","","","","","image-keyboard-response","163","2.0.0","173355","px2utorg010","axolotl","null","stimuli/field_52.jpg","null","field","B","non-repeat","null","139","stimuli/field_52.jpg","","","","",""
"","","","","","image-keyboard-response","164","2.0.0","174367","px2utorg010","axolotl","null","stimuli/gym_18.jpg","null","gym","C","non-repeat","null","140","stimuli/gym_18.jpg","","","","",""
"","","","","","image-keyboard-response","165","2.0.0","175378","px2utorg010","axolotl","null","stimuli/playground_30.jpg","null","playground","J","non-repeat","null","141","stimuli/playground_30.jpg","","","","",""
"","","","","","image-keyboard-response","166","2.0.0","176389","px2utorg010","axolotl","null","stimuli/bar_50.jpg","null","bar","K","non-repeat","null","142","stimuli/bar_50.jpg","","","","",""
"","","","","","image-keyboard-response","167","2.0.0","177401","px2utorg010","axolotl","null","stimuli/coast_33.jpg","null","coast","L","non-repeat","null","143","stimuli/coast_33.jpg","","","","",""
"","","","","","image-keyboard-response","168","2.0.0","178414","px2utorg010","axolotl","null","stimuli/kitchen_54.jpg","null","kitchen","D","non-repeat","null","144","stimuli/kitchen_54.jpg","","","","",""
"","","","","","image-keyboard-response","169","2.0.0","179428","px2utorg010","axolotl","null","stimuli/street_2.jpg","null","street","E","non-repeat","null","145","stimuli/street_2.jpg","","","","",""
"","","","","","image-keyboard-response","170","2.0.0","180444","px2utorg010","axolotl","null","stimuli/bridge_47.jpg","null","bridge","F","non-repeat","null","146","stimuli/bridge_47.jpg","","","","",""
"","","","","","image-keyboard-response","171","2.0.0","181453","px2utorg010","axolotl","null","stimuli/playground_30.jpg","null","playground","J","non-repeat","null","147","stimuli/playground_30.jpg","","","","",""
"","","","","","image-keyboard-response","172","2.0.0","182466","px2utorg010","axolotl","397","stimuli/playground_30.jpg"," ","playground","J","repeat"," ","147","","","","","",""
"","","","","","image-keyboard-response","173","2.0.0","183480","px2utorg010","axolotl","null","stimuli/bar_50.jpg","null","bar","K","non-repeat","null","148","stimuli/bar_50.jpg","","","","",""
"","","","","","image-keyboard-response","174","2.0.0","184494","px2utorg010","axolotl","null","stimuli/coast_33.jpg","null","coast","L","non-repeat","null","149","stimuli/coast_33.jpg","","","","",""
"","","","","","image-keyboard-response","175","2.0.0","185501","px2utorg010","axolotl","null","stimuli/woods_64.jpg","null","woods","G","non-repeat","null","150","stimuli/woods_64.jpg","","","","",""
"","","","","","image-keyboard-response","176","2.0.0","186509","px2utorg010","axolotl","null","stimuli/stream_35.jpg","null","stream","H","non-repeat","null","151","stimuli/stream_35.jpg","","","","",""
"","","","","","image-keyboard-response","177","2.0.0","187511","px2utorg010","axolotl","null","stimuli/desert_28.jpg","null","desert","I","non-repeat","null","152","stimuli/desert_28.jpg","","","","",""
"","","","","","image-keyboard-response","178","2.0.0","188519","px2utorg010","axolotl","310","stimuli/desert_28.jpg"," ","desert","I","repeat"," ","152","","","","","",""
"","","","","","image-keyboard-response","179","2.0.0","189531","px2utorg010","axolotl","null","stimuli/bathroom_42.jpg","null","bathroom","A","non-repeat","null","153","stimuli/bathroom_42.jpg","","","","",""
"","","","","","image-keyboard-response","180","2.0.0","190536","px2utorg010","axolotl","null","stimuli/field_52.jpg","null","field","B","non-repeat","null","154","stimuli/field_52.jpg","","","","",""
"","","","","","image-keyboard-response","181","2.0.0","191546","px2utorg010","axolotl","null","stimuli/gym_18.jpg","null","gym","C","non-repeat","null","155","stimuli/gym_18.jpg","","","","",""
"","","","","","image-keyboard-response","182","2.0.0","192556","px2utorg010","axolotl","null","stimuli/playground_30.jpg","null","playground","J","non-repeat","null","156","stimuli/playground_30.jpg","","","","",""
"","","","","","image-keyboard-response","183","2.0.0","193563","px2utorg010","axolotl","null","stimuli/bar_50.jpg","null","bar","K","non-repeat","null","157","stimuli/bar_50.jpg","","","","",""
"","","","","","image-keyboard-response","184","2.0.0","194571","px2utorg010","axolotl","null","stimuli/coast_33.jpg","null","coast","L","non-repeat","null","158","stimuli/coast_33.jpg","","","","",""
"","","","","","image-keyboard-response","185","2.0.0","195581","px2utorg010","axolotl","null","stimuli/woods_64.jpg","null","woods","G","non-repeat","null","159","stimuli/woods_64.jpg","","","","",""
"","","","","","image-keyboard-response","186","2.0.0","196592","px2utorg010","axolotl","null","stimuli/stream_35.jpg","null","stream","H","non-repeat","null","160","stimuli/stream_35.jpg","","","","",""
"","","","","","image-keyboard-response","187","2.0.0","197604","px2utorg010","axolotl","null","stimuli/desert_28.jpg","null","desert","I","non-repeat","null","161","stimuli/desert_28.jpg","","","","",""
"","","","","","image-keyboard-response","188","2.0.0","198612","px2utorg010","axolotl","null","stimuli/bathroom_42.jpg","null","bathroom","A","non-repeat","null","162","stimuli/bathroom_42.jpg","","","","",""
"","","","","","image-keyboard-response","189","2.0.0","199623","px2utorg010","axolotl","null","stimuli/field_52.jpg","null","field","B","non-repeat","null","163","stimuli/field_52.jpg","","","","",""
"","","","","","image-keyboard-response","190","2.0.0","200637","px2utorg010","axolotl","null","stimuli/gym_18.jpg","null","gym","C","non-repeat","null","164","stimuli/gym_18.jpg","","","","",""
"","","","","","image-keyboard-response","191","2.0.0","201648","px2utorg010","axolotl","null","stimuli/kitchen_54.jpg","null","kitchen","D","non-repeat","null","165","stimuli/kitchen_54.jpg","","","","",""
"","","","","","image-keyboard-response","192","2.0.0","202658","px2utorg010","axolotl","null","stimuli/street_2.jpg","null","street","E","non-repeat","null","166","stimuli/street_2.jpg","","","","",""
"","","","","","image-keyboard-response","193","2.0.0","203671","px2utorg010","axolotl","null","stimuli/bridge_47.jpg","null","bridge","F","non-repeat","null","167","stimuli/bridge_47.jpg","","","","",""
"","","","","","image-keyboard-response","194","2.0.0","204685","px2utorg010","axolotl","null","stimuli/woods_64.jpg","null","woods","G","non-repeat","null","168","stimuli/woods_64.jpg","","","","",""
"","","","","","image-keyboard-response","195","2.0.0","205695","px2utorg010","axolotl","null","stimuli/stream_35.jpg","null","stream","H","non-repeat","null","169","stimuli/stream_35.jpg","","","","",""
"","","","","","image-keyboard-response","196","2.0.0","206710","px2utorg010","axolotl","null","stimuli/desert_28.jpg","null","desert","I","non-repeat","null","170","stimuli/desert_28.jpg","","","","",""
"","","","","","image-keyboard-response","197","2.0.0","207717","px2utorg010","axolotl","null","stimuli/bathroom_42.jpg","null","bathroom","A","non-repeat","null","171","stimuli/bathroom_42.jpg","","","","",""
"","","","","","image-keyboard-response","198","2.0.0","208725","px2utorg010","axolotl","null","stimuli/field_52.jpg","null","field","B","non-repeat","null","172","stimuli/field_52.jpg","","","","",""
"","","","","","image-keyboard-response","199","2.0.0","209735","px2utorg010","axolotl","null","stimuli/gym_18.jpg","null","gym","C","non-repeat","null","173","stimuli/gym_18.jpg","","","","",""
"","","","","","image-keyboard-response","200","2.0.0","210752","px2utorg010","axolotl","null","stimuli/kitchen_54.jpg","null","kitchen","D","non-repeat","null","174","stimuli/kitchen_54.jpg","","","","",""
"","","","","","image-keyboard-response","201","2.0.0","211763","px2utorg010","axolotl","null","stimuli/street_2.jpg","null","street","E","non-repeat","null","175","stimuli/street_2.jpg","","","","",""
"","","","","","image-keyboard-response","202","2.0.0","212776","px2utorg010","axolotl","null","stimuli/bridge_47.jpg","null","bridge","F","non-repeat","null","176","stimuli/bridge_47.jpg","","","","",""
"","","","","","image-keyboard-response","203","2.0.0","213788","px2utorg010","axolotl","null","stimuli/playground_30.jpg","null","playground","J","non-repeat","null","177","stimuli/playground_30.jpg","","","","",""
"","","","","","image-keyboard-response","204","2.0.0","214801","px2utorg010","axolotl","434","stimuli/playground_30.jpg"," ","playground","J","repeat"," ","177","","","","","",""
"","","","","","image-keyboard-response","205","2.0.0","215812","px2utorg010","axolotl","null","stimuli/bar_50.jpg","null","bar","K","non-repeat","null","178","stimuli/bar_50.jpg","","","","",""
"","","","","","image-keyboard-response","206","2.0.0","216826","px2utorg010","axolotl","null","stimuli/coast_33.jpg","null","coast","L","non-repeat","null","179","stimuli/coast_33.jpg","","","","",""
"","","","","","image-keyboard-response","207","2.0.0","217840","px2utorg010","axolotl","null","stimuli/kitchen_54.jpg","null","kitchen","D","non-repeat","null","180","stimuli/kitchen_54.jpg","","","","",""
"","","","","","image-keyboard-response","208","2.0.0","218849","px2utorg010","axolotl","null","stimuli/street_2.jpg","null","street","E","non-repeat","null","181","stimuli/street_2.jpg","","","","",""
"","","","","","image-keyboard-response","209","2.0.0","219854","px2utorg010","axolotl","null","stimuli/bridge_47.jpg","null","bridge","F","non-repeat","null","182","stimuli/bridge_47.jpg","","","","",""
"","","","","","image-keyboard-response","210","2.0.0","220862","px2utorg010","axolotl","null","stimuli/bathroom_42.jpg","null","bathroom","A","non-repeat","null","183","stimuli/bathroom_42.jpg","","","","",""
"","","","","","image-keyboard-response","211","2.0.0","221875","px2utorg010","axolotl","null","stimuli/field_52.jpg","null","field","B","non-repeat","null","184","stimuli/field_52.jpg","","","","",""
"","","","","","image-keyboard-response","212","2.0.0","222887","px2utorg010","axolotl","null","stimuli/gym_18.jpg","null","gym","C","non-repeat","null","185","stimuli/gym_18.jpg","","","","",""
"","","","","","image-keyboard-response","213","2.0.0","223902","px2utorg010","axolotl","519","stimuli/gym_18.jpg"," ","gym","C","repeat"," ","185","","","","","",""
"","","","","","image-keyboard-response","214","2.0.0","224911","px2utorg010","axolotl","null","stimuli/kitchen_54.jpg","null","kitchen","D","non-repeat","null","186","stimuli/kitchen_54.jpg","","","","",""
"","","","","","image-keyboard-response","215","2.0.0","225923","px2utorg010","axolotl","380","stimuli/kitchen_54.jpg"," ","kitchen","D","repeat"," ","186","","","","","",""
"","","","","","image-keyboard-response","216","2.0.0","226933","px2utorg010","axolotl","null","stimuli/street_2.jpg","null","street","E","non-repeat","null","187","stimuli/street_2.jpg","","","","",""
"","","","","","image-keyboard-response","217","2.0.0","227945","px2utorg010","axolotl","null","stimuli/bridge_47.jpg","null","bridge","F","non-repeat","null","188","stimuli/bridge_47.jpg","","","","",""
"","","","","","image-keyboard-response","218","2.0.0","228955","px2utorg010","axolotl","null","stimuli/woods_64.jpg","null","woods","G","non-repeat","null","189","stimuli/woods_64.jpg","","","","",""
"","","","","","image-keyboard-response","219","2.0.0","229967","px2utorg010","axolotl","null","stimuli/stream_35.jpg","null","stream","H","non-repeat","null","190","stimuli/stream_35.jpg","","","","",""
"","","","","","image-keyboard-response","220","2.0.0","230980","px2utorg010","axolotl","null","stimuli/desert_28.jpg","null","desert","I","non-repeat","null","191","stimuli/desert_28.jpg","","","","",""
"","","","","","image-keyboard-response","221","2.0.0","231995","px2utorg010","axolotl","null","stimuli/playground_30.jpg","null","playground","J","non-repeat","null","192","stimuli/playground_30.jpg","","","","",""
"","","","","","image-keyboard-response","222","2.0.0","233006","px2utorg010","axolotl","365","stimuli/playground_30.jpg"," ","playground","J","repeat"," ","192","","","","","",""
"","","","","","image-keyboard-response","223","2.0.0","234023","px2utorg010","axolotl","null","stimuli/bar_50.jpg","null","bar","K","non-repeat","null","193","stimuli/bar_50.jpg","","","","",""
"","","","","","image-keyboard-response","224","2.0.0","235035","px2utorg010","axolotl","null","stimuli/coast_33.jpg","null","coast","L","non-repeat","null","194","stimuli/coast_33.jpg","","","","",""
"","","","","","image-keyboard-response","225","2.0.0","236045","px2utorg010","axolotl","null","stimuli/woods_64.jpg","null","woods","G","non-repeat","null","195","stimuli/woods_64.jpg","","","","",""
"","","","","","image-keyboard-response","226","2.0.0","237062","px2utorg010","axolotl","458","stimuli/woods_64.jpg"," ","woods","G","repeat"," ","195","","","","","",""
"","","","","","image-keyboard-response","227","2.0.0","238070","px2utorg010","axolotl","null","stimuli/stream_35.jpg","null","stream","H","non-repeat","null","196","stimuli/stream_35.jpg","","","","",""
"","","","","","image-keyboard-response","228","2.0.0","239080","px2utorg010","axolotl","null","stimuli/desert_28.jpg","null","desert","I","non-repeat","null","197","stimuli/desert_28.jpg","","","","",""
"","","","","","image-keyboard-response","229","2.0.0","240089","px2utorg010","axolotl","null","stimuli/kitchen_54.jpg","null","kitchen","D","non-repeat","null","198","stimuli/kitchen_54.jpg","","","","",""
"","","","","","image-keyboard-response","230","2.0.0","241101","px2utorg010","axolotl","null","stimuli/street_2.jpg","null","street","E","non-repeat","null","199","stimuli/street_2.jpg","","","","",""
"","","","","","image-keyboard-response","231","2.0.0","242116","px2utorg010","axolotl","null","stimuli/bridge_47.jpg","null","bridge","F","non-repeat","null","200","stimuli/bridge_47.jpg","","","","",""
"","","","","","image-keyboard-response","232","2.0.0","243125","px2utorg010","axolotl","null","stimuli/bathroom_42.jpg","null","bathroom","A","non-repeat","null","201","stimuli/bathroom_42.jpg","","","","",""
"","","","","","image-keyboard-response","233","2.0.0","244132","px2utorg010","axolotl","415","stimuli/bathroom_42.jpg"," ","bathroom","A","repeat"," ","201","","","","","",""
"","","","","","image-keyboard-response","234","2.0.0","245139","px2utorg010","axolotl","null","stimuli/field_52.jpg","null","field","B","non-repeat","null","202","stimuli/field_52.jpg","","","","",""
"","","","","","image-keyboard-response","235","2.0.0","246149","px2utorg010","axolotl","null","stimuli/gym_18.jpg","null","gym","C","non-repeat","null","203","stimuli/gym_18.jpg","","","","",""
"","","","","","image-keyboard-response","236","2.0.0","247159","px2utorg010","axolotl","359","stimuli/woods_64.jpg"," ","woods","G","non-repeat","null","204","stimuli/woods_64.jpg","","","","",""
"","","","","","image-keyboard-response","237","2.0.0","248167","px2utorg010","axolotl","null","stimuli/stream_35.jpg","null","stream","H","non-repeat","null","205","stimuli/stream_35.jpg","","","","",""
"","","","","","image-keyboard-response","238","2.0.0","249174","px2utorg010","axolotl","null","stimuli/desert_28.jpg","null","desert","I","non-repeat","null","206","stimuli/desert_28.jpg","","","","",""
"","","","","","image-keyboard-response","239","2.0.0","250185","px2utorg010","axolotl","null","stimuli/kitchen_54.jpg","null","kitchen","D","non-repeat","null","207","stimuli/kitchen_54.jpg","","","","",""
"","","","","","image-keyboard-response","240","2.0.0","251195","px2utorg010","axolotl","null","stimuli/street_2.jpg","null","street","E","non-repeat","null","208","stimuli/street_2.jpg","","","","",""
"","","","","","image-keyboard-response","241","2.0.0","252206","px2utorg010","axolotl","null","stimuli/bridge_47.jpg","null","bridge","F","non-repeat","null","209","stimuli/bridge_47.jpg","","","","",""
"","","","","","image-keyboard-response","242","2.0.0","253217","px2utorg010","axolotl","354","stimuli/bridge_47.jpg"," ","bridge","F","repeat"," ","209","","","","","",""
"","","","","","image-keyboard-response","243","2.0.0","254227","px2utorg010","axolotl","null","stimuli/playground_30.jpg","null","playground","J","non-repeat","null","210","stimuli/playground_30.jpg","","","","",""
"","","","","","image-keyboard-response","244","2.0.0","255235","px2utorg010","axolotl","null","stimuli/bar_50.jpg","null","bar","K","non-repeat","null","211","stimuli/bar_50.jpg","","","","",""
"","","","","","image-keyboard-response","245","2.0.0","256246","px2utorg010","axolotl","null","stimuli/coast_33.jpg","null","coast","L","non-repeat","null","212","stimuli/coast_33.jpg","","","","",""
"","","","","","image-keyboard-response","246","2.0.0","257256","px2utorg010","axolotl","null","stimuli/woods_64.jpg","null","woods","G","non-repeat","null","213","stimuli/woods_64.jpg","","","","",""
"","","","","","image-keyboard-response","247","2.0.0","258267","px2utorg010","axolotl","null","stimuli/stream_35.jpg","null","stream","H","non-repeat","null","214","stimuli/stream_35.jpg","","","","",""
"","","","","","image-keyboard-response","248","2.0.0","259276","px2utorg010","axolotl","null","stimuli/desert_28.jpg","null","desert","I","non-repeat","null","215","stimuli/desert_28.jpg","","","","",""
"","","","","","image-keyboard-response","249","2.0.0","260288","px2utorg010","axolotl","null","stimuli/kitchen_54.jpg","null","kitchen","D","non-repeat","null","216","stimuli/kitchen_54.jpg","","","","",""
"","","","","","image-keyboard-response","250","2.0.0","261301","px2utorg010","axolotl","null","stimuli/street_2.jpg","null","street","E","non-repeat","null","217","stimuli/street_2.jpg","","","","",""
"","","","","","image-keyboard-response","251","2.0.0","262310","px2utorg010","axolotl","null","stimuli/bridge_47.jpg","null","bridge","F","non-repeat","null","218","stimuli/bridge_47.jpg","","","","",""
"","","","","","image-keyboard-response","252","2.0.0","263315","px2utorg010","axolotl","null","stimuli/woods_64.jpg","null","woods","G","non-repeat","null","219","stimuli/woods_64.jpg","","","","",""
"","","","","","image-keyboard-response","253","2.0.0","264325","px2utorg010","axolotl","null","stimuli/stream_35.jpg","null","stream","H","non-repeat","null","220","stimuli/stream_35.jpg","","","","",""
"","","","","","image-keyboard-response","254","2.0.0","265334","px2utorg010","axolotl","null","stimuli/desert_28.jpg","null","desert","I","non-repeat","null","221","stimuli/desert_28.jpg","","","","",""
"","","","","","image-keyboard-response","255","2.0.0","266345","px2utorg010","axolotl","null","stimuli/kitchen_54.jpg","null","kitchen","D","non-repeat","null","222","stimuli/kitchen_54.jpg","","","","",""
"","","","","","image-keyboard-response","256","2.0.0","267356","px2utorg010","axolotl","null","stimuli/street_2.jpg","null","street","E","non-repeat","null","223","stimuli/street_2.jpg","","","","",""
"","","","","","image-keyboard-response","257","2.0.0","268363","px2utorg010","axolotl","null","stimuli/bridge_47.jpg","null","bridge","F","non-repeat","null","224","stimuli/bridge_47.jpg","","","","",""
"","","","","","image-keyboard-response","258","2.0.0","269369","px2utorg010","axolotl","null","stimuli/playground_30.jpg","null","playground","J","non-repeat","null","225","stimuli/playground_30.jpg","","","","",""
"","","","","","image-keyboard-response","259","2.0.0","270380","px2utorg010","axolotl","381","stimuli/playground_30.jpg"," ","playground","J","repeat"," ","225","","","","","",""
"","","","","","image-keyboard-response","260","2.0.0","271392","px2utorg010","axolotl","null","stimuli/bar_50.jpg","null","bar","K","non-repeat","null","226","stimuli/bar_50.jpg","","","","",""
"","","","","","image-keyboard-response","261","2.0.0","272401","px2utorg010","axolotl","null","stimuli/coast_33.jpg","null","coast","L","non-repeat","null","227","stimuli/coast_33.jpg","","","","",""
"","","","","","image-keyboard-response","262","2.0.0","273411","px2utorg010","axolotl","433","stimuli/kitchen_54.jpg"," ","kitchen","D","non-repeat","null","228","stimuli/kitchen_54.jpg","","","","",""
"","","","","","image-keyboard-response","263","2.0.0","274422","px2utorg010","axolotl","386","stimuli/kitchen_54.jpg"," ","kitchen","D","repeat"," ","228","","","","","",""
"","","","","","image-keyboard-response","264","2.0.0","275431","px2utorg010","axolotl","null","stimuli/street_2.jpg","null","street","E","non-repeat","null","229","stimuli/street_2.jpg","","","","",""
"","","","","","image-keyboard-response","265","2.0.0","276440","px2utorg010","axolotl","null","stimuli/bridge_47.jpg","null","bridge","F","non-repeat","null","230","stimuli/bridge_47.jpg","","","","",""
"","","","","","image-keyboard-response","266","2.0.0","277445","px2utorg010","axolotl","null","stimuli/woods_64.jpg","null","woods","G","non-repeat","null","231","stimuli/woods_64.jpg","","","","",""
"","","","","","image-keyboard-response","267","2.0.0","278452","px2utorg010","axolotl","478","stimuli/woods_64.jpg"," ","woods","G","repeat"," ","231","","","","","",""
"","","","","","image-keyboard-response","268","2.0.0","279462","px2utorg010","axolotl","null","stimuli/stream_35.jpg","null","stream","H","non-repeat","null","232","stimuli/stream_35.jpg","","","","",""
"","","","","","image-keyboard-response","269","2.0.0","280473","px2utorg010","axolotl","null","stimuli/desert_28.jpg","null","desert","I","non-repeat","null","233","stimuli/desert_28.jpg","","","","",""
"","","","","","image-keyboard-response","270","2.0.0","281480","px2utorg010","axolotl","431","stimuli/desert_28.jpg"," ","desert","I","repeat"," ","233","","","","","",""
"","","","","","image-keyboard-response","271","2.0.0","282487","px2utorg010","axolotl","null","stimuli/bathroom_42.jpg","null","bathroom","A","non-repeat","null","234","stimuli/bathroom_42.jpg","","","","",""
"","","","","","image-keyboard-response","272","2.0.0","283498","px2utorg010","axolotl","null","stimuli/field_52.jpg","null","field","B","non-repeat","null","235","stimuli/field_52.jpg","","","","",""
"","","","","","image-keyboard-response","273","2.0.0","284510","px2utorg010","axolotl","null","stimuli/gym_18.jpg","null","gym","C","non-repeat","null","236","stimuli/gym_18.jpg","","","","",""
"","","","","","image-keyboard-response","274","2.0.0","285518","px2utorg010","axolotl","null","stimuli/kitchen_54.jpg","null","kitchen","D","non-repeat","null","237","stimuli/kitchen_54.jpg","","","","",""
"","","","","","image-keyboard-response","275","2.0.0","286527","px2utorg010","axolotl","null","stimuli/street_2.jpg","null","street","E","non-repeat","null","238","stimuli/street_2.jpg","","","","",""
"","","","","","image-keyboard-response","276","2.0.0","287537","px2utorg010","axolotl","null","stimuli/bridge_47.jpg","null","bridge","F","non-repeat","null","239","stimuli/bridge_47.jpg","","","","",""
"","","","","","image-keyboard-response","277","2.0.0","288545","px2utorg010","axolotl","null","stimuli/playground_30.jpg","null","playground","J","non-repeat","null","240","stimuli/playground_30.jpg","","","","",""
"","","","","","image-keyboard-response","278","2.0.0","289556","px2utorg010","axolotl","440","stimuli/playground_30.jpg"," ","playground","J","repeat"," ","240","","","","","",""
"","","","","","image-keyboard-response","279","2.0.0","290570","px2utorg010","axolotl","null","stimuli/bar_50.jpg","null","bar","K","non-repeat","null","241","stimuli/bar_50.jpg","","","","",""
"","","","","","image-keyboard-response","280","2.0.0","291585","px2utorg010","axolotl","null","stimuli/coast_33.jpg","null","coast","L","non-repeat","null","242","stimuli/coast_33.jpg","","","","",""
"","","","","","image-keyboard-response","281","2.0.0","292593","px2utorg010","axolotl","null","stimuli/woods_64.jpg","null","woods","G","non-repeat","null","243","stimuli/woods_64.jpg","","","","",""
"","","","","","image-keyboard-response","282","2.0.0","293601","px2utorg010","axolotl","null","stimuli/stream_35.jpg","null","stream","H","non-repeat","null","244","stimuli/stream_35.jpg","","","","",""
"","","","","","image-keyboard-response","283","2.0.0","294610","px2utorg010","axolotl","null","stimuli/desert_28.jpg","null","desert","I","non-repeat","null","245","stimuli/desert_28.jpg","","","","",""
"","","","","","image-keyboard-response","284","2.0.0","295616","px2utorg010","axolotl","null","stimuli/bathroom_42.jpg","null","bathroom","A","non-repeat","null","246","stimuli/bathroom_42.jpg","","","","",""
"","","","","","image-keyboard-response","285","2.0.0","296624","px2utorg010","axolotl","null","stimuli/field_52.jpg","null","field","B","non-repeat","null","247","stimuli/field_52.jpg","","","","",""
"","","","","","image-keyboard-response","286","2.0.0","297637","px2utorg010","axolotl","null","stimuli/gym_18.jpg","null","gym","C","non-repeat","null","248","stimuli/gym_18.jpg","","","","",""
"","","","","","image-keyboard-response","287","2.0.0","298645","px2utorg010","axolotl","null","stimuli/kitchen_54.jpg","null","kitchen","D","non-repeat","null","249","stimuli/kitchen_54.jpg","","","","",""
"","","","","","image-keyboard-response","288","2.0.0","299650","px2utorg010","axolotl","null","stimuli/street_2.jpg","null","street","E","non-repeat","null","250","stimuli/street_2.jpg","","","","",""
"","","","","","image-keyboard-response","289","2.0.0","300661","px2utorg010","axolotl","null","stimuli/bridge_47.jpg","null","bridge","F","non-repeat","null","251","stimuli/bridge_47.jpg","","","","",""
"","","","","","image-keyboard-response","290","2.0.0","301674","px2utorg010","axolotl","null","stimuli/woods_64.jpg","null","woods","G","non-repeat","null","252","stimuli/woods_64.jpg","","","","",""
"","","","","","image-keyboard-response","291","2.0.0","302685","px2utorg010","axolotl","null","stimuli/stream_35.jpg","null","stream","H","non-repeat","null","253","stimuli/stream_35.jpg","","","","",""
"","","","","","image-keyboard-response","292","2.0.0","303696","px2utorg010","axolotl","null","stimuli/desert_28.jpg","null","desert","I","non-repeat","null","254","stimuli/desert_28.jpg","","","","",""
"","","","","","image-keyboard-response","293","2.0.0","304702","px2utorg010","axolotl","626","stimuli/desert_28.jpg"," ","desert","I","repeat"," ","254","","","","","",""
"","","","","","image-keyboard-response","294","2.0.0","305710","px2utorg010","axolotl","null","stimuli/playground_30.jpg","null","playground","J","non-repeat","null","255","stimuli/playground_30.jpg","","","","",""
"","","","","","image-keyboard-response","295","2.0.0","306718","px2utorg010","axolotl","null","stimuli/bar_50.jpg","null","bar","K","non-repeat","null","256","stimuli/bar_50.jpg","","","","",""
"","","","","","image-keyboard-response","296","2.0.0","307722","px2utorg010","axolotl","null","stimuli/coast_33.jpg","null","coast","L","non-repeat","null","257","stimuli/coast_33.jpg","","","","",""
"","","","","","image-keyboard-response","297","2.0.0","308731","px2utorg010","axolotl","null","stimuli/bathroom_42.jpg","null","bathroom","A","non-repeat","null","258","stimuli/bathroom_42.jpg","","","","",""
"","","","","","image-keyboard-response","298","2.0.0","309742","px2utorg010","axolotl","null","stimuli/field_52.jpg","null","field","B","non-repeat","null","259","stimuli/field_52.jpg","","","","",""
"","","","","","image-keyboard-response","299","2.0.0","310751","px2utorg010","axolotl","null","stimuli/gym_18.jpg","null","gym","C","non-repeat","null","260","stimuli/gym_18.jpg","","","","",""
"","","","","","image-keyboard-response","300","2.0.0","311758","px2utorg010","axolotl","null","stimuli/woods_64.jpg","null","woods","G","non-repeat","null","261","stimuli/woods_64.jpg","","","","",""
"","","","","","image-keyboard-response","301","2.0.0","312763","px2utorg010","axolotl","null","stimuli/stream_35.jpg","null","stream","H","non-repeat","null","262","stimuli/stream_35.jpg","","","","",""
"","","","","","image-keyboard-response","302","2.0.0","313772","px2utorg010","axolotl","null","stimuli/desert_28.jpg","null","desert","I","non-repeat","null","263","stimuli/desert_28.jpg","","","","",""
"","","","","","image-keyboard-response","303","2.0.0","314784","px2utorg010","axolotl","null","stimuli/playground_30.jpg","null","playground","J","non-repeat","null","264","stimuli/playground_30.jpg","","","","",""
"","","","","","image-keyboard-response","304","2.0.0","315789","px2utorg010","axolotl","null","stimuli/bar_50.jpg","null","bar","K","non-repeat","null","265","stimuli/bar_50.jpg","","","","",""
"","","","","","image-keyboard-response","305","2.0.0","316797","px2utorg010","axolotl","null","stimuli/coast_33.jpg","null","coast","L","non-repeat","null","266","stimuli/coast_33.jpg","","","","",""
"","","","","","image-keyboard-response","306","2.0.0","317803","px2utorg010","axolotl","null","stimuli/woods_64.jpg","null","woods","G","non-repeat","null","267","stimuli/woods_64.jpg","","","","",""
"","","","","","image-keyboard-response","307","2.0.0","318804","px2utorg010","axolotl","null","stimuli/stream_35.jpg","null","stream","H","non-repeat","null","268","stimuli/stream_35.jpg","","","","",""
"","","","","","image-keyboard-response","308","2.0.0","319814","px2utorg010","axolotl","null","stimuli/desert_28.jpg","null","desert","I","non-repeat","null","269","stimuli/desert_28.jpg","","","","",""
"","","","","","image-keyboard-response","309","2.0.0","320823","px2utorg010","axolotl","null","stimuli/playground_30.jpg","null","playground","J","non-repeat","null","270","stimuli/playground_30.jpg","","","","",""
"","","","","","image-keyboard-response","310","2.0.0","321832","px2utorg010","axolotl","null","stimuli/bar_50.jpg","null","bar","K","non-repeat","null","271","stimuli/bar_50.jpg","","","","",""
"","","","","","image-keyboard-response","311","2.0.0","322837","px2utorg010","axolotl","null","stimuli/coast_33.jpg","null","coast","L","non-repeat","null","272","stimuli/coast_33.jpg","","","","",""
"","","","","","image-keyboard-response","312","2.0.0","323846","px2utorg010","axolotl","418","stimuli/coast_33.jpg"," ","coast","L","repeat"," ","272","","","","","",""
"","","","","","image-keyboard-response","313","2.0.0","324851","px2utorg010","axolotl","null","stimuli/bathroom_42.jpg","null","bathroom","A","non-repeat","null","273","stimuli/bathroom_42.jpg","","","","",""
"","","","","","image-keyboard-response","314","2.0.0","325859","px2utorg010","axolotl","null","stimuli/field_52.jpg","null","field","B","non-repeat","null","274","stimuli/field_52.jpg","","","","",""
"","","","","","image-keyboard-response","315","2.0.0","326867","px2utorg010","axolotl","null","stimuli/gym_18.jpg","null","gym","C","non-repeat","null","275","stimuli/gym_18.jpg","","","","",""
"","","","","","image-keyboard-response","316","2.0.0","327877","px2utorg010","axolotl","null","stimuli/playground_30.jpg","null","playground","J","non-repeat","null","276","stimuli/playground_30.jpg","","","","",""
"","","","","","image-keyboard-response","317","2.0.0","328883","px2utorg010","axolotl","null","stimuli/bar_50.jpg","null","bar","K","non-repeat","null","277","stimuli/bar_50.jpg","","","","",""
"","","","","","image-keyboard-response","318","2.0.0","329894","px2utorg010","axolotl","null","stimuli/coast_33.jpg","null","coast","L","non-repeat","null","278","stimuli/coast_33.jpg","","","","",""
"","","","","","image-keyboard-response","319","2.0.0","330901","px2utorg010","axolotl","420","stimuli/coast_33.jpg"," ","coast","L","repeat"," ","278","","","","","",""
"","","","","","image-keyboard-response","320","2.0.0","331911","px2utorg010","axolotl","null","stimuli/bathroom_42.jpg","null","bathroom","A","non-repeat","null","279","stimuli/bathroom_42.jpg","","","","",""
"","","","","","image-keyboard-response","321","2.0.0","332917","px2utorg010","axolotl","null","stimuli/field_52.jpg","null","field","B","non-repeat","null","280","stimuli/field_52.jpg","","","","",""
"","","","","","image-keyboard-response","322","2.0.0","333926","px2utorg010","axolotl","null","stimuli/gym_18.jpg","null","gym","C","non-repeat","null","281","stimuli/gym_18.jpg","","","","",""
"","","","","","image-keyboard-response","323","2.0.0","334933","px2utorg010","axolotl","null","stimuli/woods_64.jpg","null","woods","G","non-repeat","null","282","stimuli/woods_64.jpg","","","","",""
"","","","","","image-keyboard-response","324","2.0.0","335942","px2utorg010","axolotl","null","stimuli/stream_35.jpg","null","stream","H","non-repeat","null","283","stimuli/stream_35.jpg","","","","",""
"","","","","","image-keyboard-response","325","2.0.0","336947","px2utorg010","axolotl","null","stimuli/desert_28.jpg","null","desert","I","non-repeat","null","284","stimuli/desert_28.jpg","","","","",""
"","","","","","image-keyboard-response","326","2.0.0","337955","px2utorg010","axolotl","null","stimuli/bathroom_42.jpg","null","bathroom","A","non-repeat","null","285","stimuli/bathroom_42.jpg","","","","",""
"","","","","","image-keyboard-response","327","2.0.0","338961","px2utorg010","axolotl","null","stimuli/field_52.jpg","null","field","B","non-repeat","null","286","stimuli/field_52.jpg","","","","",""
"","","","","","image-keyboard-response","328","2.0.0","339975","px2utorg010","axolotl","null","stimuli/gym_18.jpg","null","gym","C","non-repeat","null","287","stimuli/gym_18.jpg","","","","",""
"","","","","","image-keyboard-response","329","2.0.0","340984","px2utorg010","axolotl","null","stimuli/woods_64.jpg","null","woods","G","non-repeat","null","288","stimuli/woods_64.jpg","","","","",""
"","","","","","image-keyboard-response","330","2.0.0","341994","px2utorg010","axolotl","451","stimuli/woods_64.jpg"," ","woods","G","repeat"," ","288","","","","","",""
"","","","","","image-keyboard-response","331","2.0.0","343005","px2utorg010","axolotl","null","stimuli/stream_35.jpg","null","stream","H","non-repeat","null","289","stimuli/stream_35.jpg","","","","",""
"","","","","","image-keyboard-response","332","2.0.0","344016","px2utorg010","axolotl","null","stimuli/desert_28.jpg","null","desert","I","non-repeat","null","290","stimuli/desert_28.jpg","","","","",""
"","","","","","image-keyboard-response","333","2.0.0","345026","px2utorg010","axolotl","null","stimuli/playground_30.jpg","null","playground","J","non-repeat","null","291","stimuli/playground_30.jpg","","","","",""
"","","","","","image-keyboard-response","334","2.0.0","346035","px2utorg010","axolotl","null","stimuli/bar_50.jpg","null","bar","K","non-repeat","null","292","stimuli/bar_50.jpg","","","","",""
"","","","","","image-keyboard-response","335","2.0.0","347045","px2utorg010","axolotl","null","stimuli/coast_33.jpg","null","coast","L","non-repeat","null","293","stimuli/coast_33.jpg","","","","",""
"","","","","","image-keyboard-response","336","2.0.0","348056","px2utorg010","axolotl","null","stimuli/bathroom_42.jpg","null","bathroom","A","non-repeat","null","294","stimuli/bathroom_42.jpg","","","","",""
"","","","","","image-keyboard-response","337","2.0.0","349069","px2utorg010","axolotl","null","stimuli/field_52.jpg","null","field","B","non-repeat","null","295","stimuli/field_52.jpg","","","","",""
"","","","","","image-keyboard-response","338","2.0.0","350078","px2utorg010","axolotl","null","stimuli/gym_18.jpg","null","gym","C","non-repeat","null","296","stimuli/gym_18.jpg","","","","",""
"","","","","","image-keyboard-response","339","2.0.0","351086","px2utorg010","axolotl","null","stimuli/woods_64.jpg","null","woods","G","non-repeat","null","297","stimuli/woods_64.jpg","","","","",""
"","","","","","image-keyboard-response","340","2.0.0","352095","px2utorg010","axolotl","330","stimuli/woods_64.jpg"," ","woods","G","repeat"," ","297","","","","","",""
"","","","","","image-keyboard-response","341","2.0.0","353102","px2utorg010","axolotl","null","stimuli/stream_35.jpg","null","stream","H","non-repeat","null","298","stimuli/stream_35.jpg","","","","",""
"","","","","","image-keyboard-response","342","2.0.0","354111","px2utorg010","axolotl","null","stimuli/desert_28.jpg","null","desert","I","non-repeat","null","299","stimuli/desert_28.jpg","","","","",""
"","","","","","image-keyboard-response","343","2.0.0","355114","px2utorg010","axolotl","310","stimuli/desert_28.jpg"," ","desert","I","repeat"," ","299","","","","","",""
"","","","","","image-keyboard-response","344","2.0.0","356126","px2utorg010","axolotl","null","stimuli/kitchen_54.jpg","null","kitchen","D","non-repeat","null","300","stimuli/kitchen_54.jpg","","","","",""
"","","","","","image-keyboard-response","345","2.0.0","357136","px2utorg010","axolotl","342","stimuli/kitchen_54.jpg"," ","kitchen","D","repeat"," ","300","","","","","",""
"","","","","","image-keyboard-response","346","2.0.0","358139","px2utorg010","axolotl","null","stimuli/street_2.jpg","null","street","E","non-repeat","null","301","stimuli/street_2.jpg","","","","",""
"","","","","","image-keyboard-response","347","2.0.0","359150","px2utorg010","axolotl","null","stimuli/bridge_47.jpg","null","bridge","F","non-repeat","null","302","stimuli/bridge_47.jpg","","","","",""
"","","","","","image-keyboard-response","348","2.0.0","360161","px2utorg010","axolotl","null","stimuli/playground_30.jpg","null","playground","J","non-repeat","null","303","stimuli/playground_30.jpg","","","","",""
"","","","","","image-keyboard-response","349","2.0.0","361170","px2utorg010","axolotl","null","stimuli/bar_50.jpg","null","bar","K","non-repeat","null","304","stimuli/bar_50.jpg","","","","",""
"","","","","","image-keyboard-response","350","2.0.0","362177","px2utorg010","axolotl","null","stimuli/coast_33.jpg","null","coast","L","non-repeat","null","305","stimuli/coast_33.jpg","","","","",""
"","","","","","image-keyboard-response","351","2.0.0","363182","px2utorg010","axolotl","345","stimuli/coast_33.jpg"," ","coast","L","repeat"," ","305","","","","","",""
"","","","","","image-keyboard-response","352","2.0.0","364191","px2utorg010","axolotl","null","stimuli/woods_64.jpg","null","woods","G","non-repeat","null","306","stimuli/woods_64.jpg","","","","",""
"","","","","","image-keyboard-response","353","2.0.0","365199","px2utorg010","axolotl","null","stimuli/stream_35.jpg","null","stream","H","non-repeat","null","307","stimuli/stream_35.jpg","","","","",""
"","","","","","image-keyboard-response","354","2.0.0","366211","px2utorg010","axolotl","null","stimuli/desert_28.jpg","null","desert","I","non-repeat","null","308","stimuli/desert_28.jpg","","","","",""
"","","","","","image-keyboard-response","355","2.0.0","367221","px2utorg010","axolotl","359","stimuli/desert_28.jpg"," ","desert","I","repeat"," ","308","","","","","",""
"","","","","","image-keyboard-response","356","2.0.0","368227","px2utorg010","axolotl","null","stimuli/bathroom_42.jpg","null","bathroom","A","non-repeat","null","309","stimuli/bathroom_42.jpg","","","","",""
"","","","","","image-keyboard-response","357","2.0.0","369239","px2utorg010","axolotl","null","stimuli/field_52.jpg","null","field","B","non-repeat","null","310","stimuli/field_52.jpg","","","","",""
"","","","","","image-keyboard-response","358","2.0.0","370255","px2utorg010","axolotl","null","stimuli/gym_18.jpg","null","gym","C","non-repeat","null","311","stimuli/gym_18.jpg","","","","",""
"","","","","","image-keyboard-response","359","2.0.0","371264","px2utorg010","axolotl","null","stimuli/playground_30.jpg","null","playground","J","non-repeat","null","312","stimuli/playground_30.jpg","","","","",""
"","","","","","image-keyboard-response","360","2.0.0","372272","px2utorg010","axolotl","null","stimuli/bar_50.jpg","null","bar","K","non-repeat","null","313","stimuli/bar_50.jpg","","","","",""
"","","","","","image-keyboard-response","361","2.0.0","373282","px2utorg010","axolotl","null","stimuli/coast_33.jpg","null","coast","L","non-repeat","null","314","stimuli/coast_33.jpg","","","","",""
"","","","","","image-keyboard-response","362","2.0.0","374294","px2utorg010","axolotl","null","stimuli/woods_64.jpg","null","woods","G","non-repeat","null","315","stimuli/woods_64.jpg","","","","",""
"","","","","","image-keyboard-response","363","2.0.0","375296","px2utorg010","axolotl","440","stimuli/woods_64.jpg"," ","woods","G","repeat"," ","315","","","","","",""
"","","","","","image-keyboard-response","364","2.0.0","376305","px2utorg010","axolotl","null","stimuli/stream_35.jpg","null","stream","H","non-repeat","null","316","stimuli/stream_35.jpg","","","","",""
"","","","","","image-keyboard-response","365","2.0.0","377314","px2utorg010","axolotl","null","stimuli/desert_28.jpg","null","desert","I","non-repeat","null","317","stimuli/desert_28.jpg","","","","",""
"","","","","","image-keyboard-response","366","2.0.0","378319","px2utorg010","axolotl","null","stimuli/bathroom_42.jpg","null","bathroom","A","non-repeat","null","318","stimuli/bathroom_42.jpg","","","","",""
"","","","","","image-keyboard-response","367","2.0.0","379327","px2utorg010","axolotl","null","stimuli/field_52.jpg","null","field","B","non-repeat","null","319","stimuli/field_52.jpg","","","","",""
"","","","","","image-keyboard-response","368","2.0.0","380337","px2utorg010","axolotl","null","stimuli/gym_18.jpg","null","gym","C","non-repeat","null","320","stimuli/gym_18.jpg","","","","",""
"","","","","","image-keyboard-response","369","2.0.0","381347","px2utorg010","axolotl","520","stimuli/gym_18.jpg"," ","gym","C","repeat"," ","320","","","","","",""
"","","","","","image-keyboard-response","370","2.0.0","382354","px2utorg010","axolotl","null","stimuli/kitchen_54.jpg","null","kitchen","D","non-repeat","null","321","stimuli/kitchen_54.jpg","","","","",""
"","","","","","image-keyboard-response","371","2.0.0","383361","px2utorg010","axolotl","null","stimuli/street_2.jpg","null","street","E","non-repeat","null","322","stimuli/street_2.jpg","","","","",""
"","","","","","image-keyboard-response","372","2.0.0","384368","px2utorg010","axolotl","null","stimuli/bridge_47.jpg","null","bridge","F","non-repeat","null","323","stimuli/bridge_47.jpg","","","","",""
"","","","","","image-keyboard-response","373","2.0.0","385375","px2utorg010","axolotl","444","stimuli/bridge_47.jpg"," ","bridge","F","repeat"," ","323","","","","","",""
"","","","","","image-keyboard-response","374","2.0.0","386381","px2utorg010","axolotl","null","stimuli/playground_30.jpg","null","playground","J","non-repeat","null","324","stimuli/playground_30.jpg","","","","",""
"","","","","","image-keyboard-response","375","2.0.0","387390","px2utorg010","axolotl","null","stimuli/bar_50.jpg","null","bar","K","non-repeat","null","325","stimuli/bar_50.jpg","","","","",""
"","","","","","image-keyboard-response","376","2.0.0","388399","px2utorg010","axolotl","null","stimuli/coast_33.jpg","null","coast","L","non-repeat","null","326","stimuli/coast_33.jpg","","","","",""
"","","","","","image-keyboard-response","377","2.0.0","389411","px2utorg010","axolotl","null","stimuli/woods_64.jpg","null","woods","G","non-repeat","null","327","stimuli/woods_64.jpg","","","","",""
"","","","","","image-keyboard-response","378","2.0.0","390423","px2utorg010","axolotl","null","stimuli/stream_35.jpg","null","stream","H","non-repeat","null","328","stimuli/stream_35.jpg","","","","",""
"","","","","","image-keyboard-response","379","2.0.0","391434","px2utorg010","axolotl","null","stimuli/desert_28.jpg","null","desert","I","non-repeat","null","329","stimuli/desert_28.jpg","","","","",""
"","","","","","image-keyboard-response","380","2.0.0","392443","px2utorg010","axolotl","null","stimuli/kitchen_54.jpg","null","kitchen","D","non-repeat","null","330","stimuli/kitchen_54.jpg","","","","",""
"","","","","","image-keyboard-response","381","2.0.0","393449","px2utorg010","axolotl","null","stimuli/street_2.jpg","null","street","E","non-repeat","null","331","stimuli/street_2.jpg","","","","",""
"","","","","","image-keyboard-response","382","2.0.0","394462","px2utorg010","axolotl","null","stimuli/bridge_47.jpg","null","bridge","F","non-repeat","null","332","stimuli/bridge_47.jpg","","","","",""
"","","","","","image-keyboard-response","383","2.0.0","395468","px2utorg010","axolotl","null","stimuli/playground_30.jpg","null","playground","J","non-repeat","null","333","stimuli/playground_30.jpg","","","","",""
"","","","","","image-keyboard-response","384","2.0.0","396480","px2utorg010","axolotl","null","stimuli/bar_50.jpg","null","bar","K","non-repeat","null","334","stimuli/bar_50.jpg","","","","",""
"","","","","","image-keyboard-response","385","2.0.0","397494","px2utorg010","axolotl","null","stimuli/coast_33.jpg","null","coast","L","non-repeat","null","335","stimuli/coast_33.jpg","","","","",""
"","","","","","image-keyboard-response","386","2.0.0","398505","px2utorg010","axolotl","null","stimuli/bathroom_42.jpg","null","bathroom","A","non-repeat","null","336","stimuli/bathroom_42.jpg","","","","",""
"","","","","","image-keyboard-response","387","2.0.0","399512","px2utorg010","axolotl","null","stimuli/field_52.jpg","null","field","B","non-repeat","null","337","stimuli/field_52.jpg","","","","",""
"","","","","","image-keyboard-response","388","2.0.0","400521","px2utorg010","axolotl","null","stimuli/gym_18.jpg","null","gym","C","non-repeat","null","338","stimuli/gym_18.jpg","","","","",""
"","","","","","image-keyboard-response","389","2.0.0","401529","px2utorg010","axolotl","null","stimuli/woods_64.jpg","null","woods","G","non-repeat","null","339","stimuli/woods_64.jpg","","","","",""
"","","","","","image-keyboard-response","390","2.0.0","402539","px2utorg010","axolotl","395","stimuli/woods_64.jpg"," ","woods","G","repeat"," ","339","","","","","",""
"","","","","","image-keyboard-response","391","2.0.0","403546","px2utorg010","axolotl","null","stimuli/stream_35.jpg","null","stream","H","non-repeat","null","340","stimuli/stream_35.jpg","","","","",""
"","","","","","image-keyboard-response","392","2.0.0","404557","px2utorg010","axolotl","null","stimuli/desert_28.jpg","null","desert","I","non-repeat","null","341","stimuli/desert_28.jpg","","","","",""
"","","","","","image-keyboard-response","393","2.0.0","405571","px2utorg010","axolotl","415","stimuli/desert_28.jpg"," ","desert","I","repeat"," ","341","","","","","",""
"","","","","","image-keyboard-response","394","2.0.0","406579","px2utorg010","axolotl","null","stimuli/playground_30.jpg","null","playground","J","non-repeat","null","342","stimuli/playground_30.jpg","","","","",""
"","","","","","image-keyboard-response","395","2.0.0","407586","px2utorg010","axolotl","null","stimuli/bar_50.jpg","null","bar","K","non-repeat","null","343","stimuli/bar_50.jpg","","","","",""
"","","","","","image-keyboard-response","396","2.0.0","408596","px2utorg010","axolotl","null","stimuli/coast_33.jpg","null","coast","L","non-repeat","null","344","stimuli/coast_33.jpg","","","","",""
"","","","","","image-keyboard-response","397","2.0.0","409604","px2utorg010","axolotl","377","stimuli/coast_33.jpg"," ","coast","L","repeat"," ","344","","","","","",""
"","","","","","image-keyboard-response","398","2.0.0","410611","px2utorg010","axolotl","null","stimuli/bathroom_42.jpg","null","bathroom","A","non-repeat","null","345","stimuli/bathroom_42.jpg","","","","",""
"","","","","","image-keyboard-response","399","2.0.0","411618","px2utorg010","axolotl","485","stimuli/bathroom_42.jpg"," ","bathroom","A","repeat"," ","345","","","","","",""
"","","","","","image-keyboard-response","400","2.0.0","412624","px2utorg010","axolotl","null","stimuli/field_52.jpg","null","field","B","non-repeat","null","346","stimuli/field_52.jpg","","","","",""
"","","","","","image-keyboard-response","401","2.0.0","413635","px2utorg010","axolotl","null","stimuli/gym_18.jpg","null","gym","C","non-repeat","null","347","stimuli/gym_18.jpg","","","","",""
"","","","","","image-keyboard-response","402","2.0.0","414643","px2utorg010","axolotl","null","stimuli/woods_64.jpg","null","woods","G","non-repeat","null","348","stimuli/woods_64.jpg","","","","",""
"","","","","","image-keyboard-response","403","2.0.0","415654","px2utorg010","axolotl","null","stimuli/stream_35.jpg","null","stream","H","non-repeat","null","349","stimuli/stream_35.jpg","","","","",""
"","","","","","image-keyboard-response","404","2.0.0","416659","px2utorg010","axolotl","null","stimuli/desert_28.jpg","null","desert","I","non-repeat","null","350","stimuli/desert_28.jpg","","","","",""
"","","","","","image-keyboard-response","405","2.0.0","417666","px2utorg010","axolotl","null","stimuli/bathroom_42.jpg","null","bathroom","A","non-repeat","null","351","stimuli/bathroom_42.jpg","","","","",""
"","","","","","image-keyboard-response","406","2.0.0","418674","px2utorg010","axolotl","null","stimuli/field_52.jpg","null","field","B","non-repeat","null","352","stimuli/field_52.jpg","","","","",""
"","","","","","image-keyboard-response","407","2.0.0","419686","px2utorg010","axolotl","null","stimuli/gym_18.jpg","null","gym","C","non-repeat","null","353","stimuli/gym_18.jpg","","","","",""
"","","","","","image-keyboard-response","408","2.0.0","420699","px2utorg010","axolotl","419","stimuli/gym_18.jpg"," ","gym","C","repeat"," ","353","","","","","",""
"","","","","","image-keyboard-response","409","2.0.0","421714","px2utorg010","axolotl","null","stimuli/woods_64.jpg","null","woods","G","non-repeat","null","354","stimuli/woods_64.jpg","","","","",""
"","","","","","image-keyboard-response","410","2.0.0","422720","px2utorg010","axolotl","null","stimuli/stream_35.jpg","null","stream","H","non-repeat","null","355","stimuli/stream_35.jpg","","","","",""
"","","","","","image-keyboard-response","411","2.0.0","423728","px2utorg010","axolotl","null","stimuli/desert_28.jpg","null","desert","I","non-repeat","null","356","stimuli/desert_28.jpg","","","","",""
"","","","","","image-keyboard-response","412","2.0.0","424735","px2utorg010","axolotl","329","stimuli/desert_28.jpg"," ","desert","I","repeat"," ","356","","","","","",""
"","","","","","image-keyboard-response","413","2.0.0","425746","px2utorg010","axolotl","null","stimuli/playground_30.jpg","null","playground","J","non-repeat","null","357","stimuli/playground_30.jpg","","","","",""
"","","","","","image-keyboard-response","414","2.0.0","426755","px2utorg010","axolotl","null","stimuli/bar_50.jpg","null","bar","K","non-repeat","null","358","stimuli/bar_50.jpg","","","","",""
"","","","","","image-keyboard-response","415","2.0.0","427765","px2utorg010","axolotl","null","stimuli/coast_33.jpg","null","coast","L","non-repeat","null","359","stimuli/coast_33.jpg","","","","",""
"","","","","","image-keyboard-response","416","2.0.0","428773","px2utorg010","axolotl","313","stimuli/kitchen_54.jpg"," ","kitchen","D","non-repeat","null","360","stimuli/kitchen_54.jpg","","","","",""
"","","","","","image-keyboard-response","417","2.0.0","429784","px2utorg010","axolotl","null","stimuli/street_2.jpg","null","street","E","non-repeat","null","361","stimuli/street_2.jpg","","","","",""
"","","","","","image-keyboard-response","418","2.0.0","430793","px2utorg010","axolotl","null","stimuli/bridge_47.jpg","null","bridge","F","non-repeat","null","362","stimuli/bridge_47.jpg","","","","",""
"","","","","","image-keyboard-response","419","2.0.0","431801","px2utorg010","axolotl","null","stimuli/woods_64.jpg","null","woods","G","non-repeat","null","363","stimuli/woods_64.jpg","","","","",""
"","","","","","image-keyboard-response","420","2.0.0","432809","px2utorg010","axolotl","null","stimuli/stream_35.jpg","null","stream","H","non-repeat","null","364","stimuli/stream_35.jpg","","","","",""
"","","","","","image-keyboard-response","421","2.0.0","433820","px2utorg010","axolotl","null","stimuli/desert_28.jpg","null","desert","I","non-repeat","null","365","stimuli/desert_28.jpg","","","","",""
"","","","","","image-keyboard-response","422","2.0.0","434831","px2utorg010","axolotl","null","stimuli/kitchen_54.jpg","null","kitchen","D","non-repeat","null","366","stimuli/kitchen_54.jpg","","","","",""
"","","","","","image-keyboard-response","423","2.0.0","435841","px2utorg010","axolotl","null","stimuli/street_2.jpg","null","street","E","non-repeat","null","367","stimuli/street_2.jpg","","","","",""
"","","","","","image-keyboard-response","424","2.0.0","436849","px2utorg010","axolotl","null","stimuli/bridge_47.jpg","null","bridge","F","non-repeat","null","368","stimuli/bridge_47.jpg","","","","",""
"","","","","","image-keyboard-response","425","2.0.0","437861","px2utorg010","axolotl","null","stimuli/bathroom_42.jpg","null","bathroom","A","non-repeat","null","369","stimuli/bathroom_42.jpg","","","","",""
"","","","","","image-keyboard-response","426","2.0.0","438870","px2utorg010","axolotl","null","stimuli/field_52.jpg","null","field","B","non-repeat","null","370","stimuli/field_52.jpg","","","","",""
"","","","","","image-keyboard-response","427","2.0.0","439879","px2utorg010","axolotl","null","stimuli/gym_18.jpg","null","gym","C","non-repeat","null","371","stimuli/gym_18.jpg","","","","",""
"","","","","","image-keyboard-response","428","2.0.0","440888","px2utorg010","axolotl","null","stimuli/kitchen_54.jpg","null","kitchen","D","non-repeat","null","372","stimuli/kitchen_54.jpg","","","","",""
"","","","","","image-keyboard-response","429","2.0.0","441897","px2utorg010","axolotl","null","stimuli/street_2.jpg","null","street","E","non-repeat","null","373","stimuli/street_2.jpg","","","","",""
"","","","","","image-keyboard-response","430","2.0.0","442912","px2utorg010","axolotl","null","stimuli/bridge_47.jpg","null","bridge","F","non-repeat","null","374","stimuli/bridge_47.jpg","","","","",""
"","","","","","image-keyboard-response","431","2.0.0","443920","px2utorg010","axolotl","504","stimuli/bridge_47.jpg"," ","bridge","F","repeat"," ","374","","","","","",""
"","","","","","image-keyboard-response","432","2.0.0","444929","px2utorg010","axolotl","null","stimuli/bathroom_42.jpg","null","bathroom","A","non-repeat","null","375","stimuli/bathroom_42.jpg","","","","",""
"","","","","","image-keyboard-response","433","2.0.0","445935","px2utorg010","axolotl","null","stimuli/field_52.jpg","null","field","B","non-repeat","null","376","stimuli/field_52.jpg","","","","",""
"","","","","","image-keyboard-response","434","2.0.0","446948","px2utorg010","axolotl","null","stimuli/gym_18.jpg","null","gym","C","non-repeat","null","377","stimuli/gym_18.jpg","","","","",""
"","","","","","image-keyboard-response","435","2.0.0","447956","px2utorg010","axolotl","null","stimuli/kitchen_54.jpg","null","kitchen","D","non-repeat","null","378","stimuli/kitchen_54.jpg","","","","",""
"","","","","","image-keyboard-response","436","2.0.0","448961","px2utorg010","axolotl","null","stimuli/street_2.jpg","null","street","E","non-repeat","null","379","stimuli/street_2.jpg","","","","",""
"","","","","","image-keyboard-response","437","2.0.0","449971","px2utorg010","axolotl","null","stimuli/bridge_47.jpg","null","bridge","F","non-repeat","null","380","stimuli/bridge_47.jpg","","","","",""
"","","","","","image-keyboard-response","438","2.0.0","450980","px2utorg010","axolotl","null","stimuli/bridge_47.jpg","null","bridge","F","repeat"," ","380","","","","","",""
"","","","","","image-keyboard-response","439","2.0.0","451989","px2utorg010","axolotl","null","stimuli/woods_64.jpg","null","woods","G","non-repeat","null","381","stimuli/woods_64.jpg","","","","",""
"","","","","","image-keyboard-response","440","2.0.0","452997","px2utorg010","axolotl","472","stimuli/woods_64.jpg"," ","woods","G","repeat"," ","381","","","","","",""
"","","","","","image-keyboard-response","441","2.0.0","454005","px2utorg010","axolotl","null","stimuli/stream_35.jpg","null","stream","H","non-repeat","null","382","stimuli/stream_35.jpg","","","","",""
"","","","","","image-keyboard-response","442","2.0.0","455010","px2utorg010","axolotl","null","stimuli/desert_28.jpg","null","desert","I","non-repeat","null","383","stimuli/desert_28.jpg","","","","",""
"","","","","","html-keyboard-response","443","2.0.0","464570","px2utorg010","axolotl","9560","
    <div style='width:900px;margin: auto;'><p>In the next part of the experiment, we want to see how well you learned the structure in the stream of images.</p>
    <p>On each trial, you will see two sequences of three images, sequence 1 and 2. We will ask you to indicate which sequence was more familiar based on the first part of the experiment.</p>
    <p>Press 1 if the first sequence (sequence 1) felt more familiar. Press 2 if the second sequence (sequence 2) felt more familiar.</p>
    <p>Press any key to begin.</p></div>"," ","","","","","","","","","","",""
"","","","","","html-keyboard-response","444","2.0.0","465580","px2utorg010","axolotl","null","<p>Sequence 1</p>","null","","","","","","","","","","",""
"","","","","","image-keyboard-response","445","2.0.0","466592","px2utorg010","axolotl","null","stimuli/woods_64.jpg","null","","","","","","","","","","",""
"","","","","","image-keyboard-response","446","2.0.0","467598","px2utorg010","axolotl","null","stimuli/stream_35.jpg","null","","","","","","","","","","",""
"","","","","","image-keyboard-response","447","2.0.0","468609","px2utorg010","axolotl","null","stimuli/desert_28.jpg","null","","","","","","","","","","",""
"","","","","","html-keyboard-response","448","2.0.0","469625","px2utorg010","axolotl","null","<p></p>","null","","","","","","","","","","",""
"","","","","","html-keyboard-response","449","2.0.0","470634","px2utorg010","axolotl","null","<p>Sequence 2</p>","null","","","","","","","","","","",""
"","","","","","image-keyboard-response","450","2.0.0","471646","px2utorg010","axolotl","null","stimuli/woods_64.jpg","null","","","","","","","","","","",""
"","","","","","image-keyboard-response","451","2.0.0","472657","px2utorg010","axolotl","null","stimuli/bar_50.jpg","null","","","","","","","","","","",""
"","","","","","image-keyboard-response","452","2.0.0","473667","px2utorg010","axolotl","null","stimuli/gym_18.jpg","null","","","","","","","","","","",""
"","","","","","html-keyboard-response","453","2.0.0","474653","px2utorg010","axolotl","986","<p>Press '1' if the first sequence was familiar, '2' if the second was.</p>","2","","","1","","","","[""G"",""H"",""I""]","[""G"",""K"",""C""]","false","[""<p>Sequence 1</p>"",""stimuli/woods_64.jpg"",""stimuli/stream_35.jpg"",""stimuli/desert_28.jpg""]","[""<p>Sequence 2</p>"",""stimuli/woods_64.jpg"",""stimuli/bar_50.jpg"",""stimuli/gym_18.jpg""]"
"","","","","","html-keyboard-response","454","2.0.0","475661","px2utorg010","axolotl","null","<p>Sequence 1</p>","null","","","","","","","","","","",""
"","","","","","image-keyboard-response","455","2.0.0","476671","px2utorg010","axolotl","null","stimuli/kitchen_54.jpg","null","","","","","","","","","","",""
"","","","","","image-keyboard-response","456","2.0.0","477678","px2utorg010","axolotl","null","stimuli/street_2.jpg","null","","","","","","","","","","",""
"","","","","","image-keyboard-response","457","2.0.0","478690","px2utorg010","axolotl","null","stimuli/bridge_47.jpg","null","","","","","","","","","","",""
"","","","","","html-keyboard-response","458","2.0.0","479697","px2utorg010","axolotl","null","<p></p>","null","","","","","","","","","","",""
"","","","","","html-keyboard-response","459","2.0.0","480705","px2utorg010","axolotl","null","<p>Sequence 2</p>","null","","","","","","","","","","",""
"","","","","","image-keyboard-response","460","2.0.0","481717","px2utorg010","axolotl","null","stimuli/bathroom_42.jpg","null","","","","","","","","","","",""
"","","","","","image-keyboard-response","461","2.0.0","482723","px2utorg010","axolotl","null","stimuli/street_2.jpg","null","","","","","","","","","","",""
"","","","","","image-keyboard-response","462","2.0.0","483728","px2utorg010","axolotl","null","stimuli/desert_28.jpg","null","","","","","","","","","","",""
"","","","","","html-keyboard-response","463","2.0.0","483886","px2utorg010","axolotl","157","<p>Press '1' if the first sequence was familiar, '2' if the second was.</p>","1","","","1","","","","[""D"",""E"",""F""]","[""A"",""E"",""I""]","true","[""<p>Sequence 1</p>"",""stimuli/kitchen_54.jpg"",""stimuli/street_2.jpg"",""stimuli/bridge_47.jpg""]","[""<p>Sequence 2</p>"",""stimuli/bathroom_42.jpg"",""stimuli/street_2.jpg"",""stimuli/desert_28.jpg""]"
"","","","","","html-keyboard-response","464","2.0.0","484896","px2utorg010","axolotl","null","<p>Sequence 1</p>","null","","","","","","","","","","",""
"","","","","","image-keyboard-response","465","2.0.0","485908","px2utorg010","axolotl","null","stimuli/bathroom_42.jpg","null","","","","","","","","","","",""
"","","","","","image-keyboard-response","466","2.0.0","486918","px2utorg010","axolotl","null","stimuli/street_2.jpg","null","","","","","","","","","","",""
"","","","","","image-keyboard-response","467","2.0.0","487928","px2utorg010","axolotl","null","stimuli/desert_28.jpg","null","","","","","","","","","","",""
"","","","","","html-keyboard-response","468","2.0.0","488941","px2utorg010","axolotl","null","<p></p>","null","","","","","","","","","","",""
"","","","","","html-keyboard-response","469","2.0.0","489946","px2utorg010","axolotl","null","<p>Sequence 2</p>","null","","","","","","","","","","",""
"","","","","","image-keyboard-response","470","2.0.0","490956","px2utorg010","axolotl","null","stimuli/playground_30.jpg","null","","","","","","","","","","",""
"","","","","","image-keyboard-response","471","2.0.0","491966","px2utorg010","axolotl","null","stimuli/bar_50.jpg","null","","","","","","","","","","",""
"","","","","","image-keyboard-response","472","2.0.0","492973","px2utorg010","axolotl","null","stimuli/coast_33.jpg","null","","","","","","","","","","",""
"","","","","","html-keyboard-response","473","2.0.0","493361","px2utorg010","axolotl","387","<p>Press '1' if the first sequence was familiar, '2' if the second was.</p>","2","","","2","","","","[""J"",""K"",""L""]","[""A"",""E"",""I""]","true","[""<p>Sequence 1</p>"",""stimuli/bathroom_42.jpg"",""stimuli/street_2.jpg"",""stimuli/desert_28.jpg""]","[""<p>Sequence 2</p>"",""stimuli/playground_30.jpg"",""stimuli/bar_50.jpg"",""stimuli/coast_33.jpg""]"
"","","","","","html-keyboard-response","474","2.0.0","494368","px2utorg010","axolotl","null","<p>Sequence 1</p>","null","","","","","","","","","","",""
"","","","","","image-keyboard-response","475","2.0.0","495377","px2utorg010","axolotl","null","stimuli/woods_64.jpg","null","","","","","","","","","","",""
"","","","","","image-keyboard-response","476","2.0.0","496386","px2utorg010","axolotl","null","stimuli/stream_35.jpg","null","","","","","","","","","","",""
"","","","","","image-keyboard-response","477","2.0.0","497396","px2utorg010","axolotl","null","stimuli/desert_28.jpg","null","","","","","","","","","","",""
"","","","","","html-keyboard-response","478","2.0.0","498406","px2utorg010","axolotl","null","<p></p>","null","","","","","","","","","","",""
"","","","","","html-keyboard-response","479","2.0.0","499415","px2utorg010","axolotl","null","<p>Sequence 2</p>","null","","","","","","","","","","",""
"","","","","","image-keyboard-response","480","2.0.0","500428","px2utorg010","axolotl","null","stimuli/playground_30.jpg","null","","","","","","","","","","",""
"","","","","","image-keyboard-response","481","2.0.0","501435","px2utorg010","axolotl","null","stimuli/field_52.jpg","null","","","","","","","","","","",""
"","","","","","image-keyboard-response","482","2.0.0","502443","px2utorg010","axolotl","null","stimuli/bridge_47.jpg","null","","","","","","","","","","",""
"","","","","","html-keyboard-response","483","2.0.0","502708","px2utorg010","axolotl","265","<p>Press '1' if the first sequence was familiar, '2' if the second was.</p>","1","","","1","","","","[""G"",""H"",""I""]","[""J"",""B"",""F""]","true","[""<p>Sequence 1</p>"",""stimuli/woods_64.jpg"",""stimuli/stream_35.jpg"",""stimuli/desert_28.jpg""]","[""<p>Sequence 2</p>"",""stimuli/playground_30.jpg"",""stimuli/field_52.jpg"",""stimuli/bridge_47.jpg""]"
"","","","","","html-keyboard-response","484","2.0.0","503716","px2utorg010","axolotl","null","<p>Sequence 1</p>","null","","","","","","","","","","",""
"","","","","","image-keyboard-response","485","2.0.0","504726","px2utorg010","axolotl","null","stimuli/woods_64.jpg","null","","","","","","","","","","",""
"","","","","","image-keyboard-response","486","2.0.0","505734","px2utorg010","axolotl","null","stimuli/stream_35.jpg","null","","","","","","","","","","",""
"","","","","","image-keyboard-response","487","2.0.0","506745","px2utorg010","axolotl","null","stimuli/desert_28.jpg","null","","","","","","","","","","",""
"","","","","","html-keyboard-response","488","2.0.0","507754","px2utorg010","axolotl","null","<p></p>","null","","","","","","","","","","",""
"","","","","","html-keyboard-response","489","2.0.0","508760","px2utorg010","axolotl","null","<p>Sequence 2</p>","null","","","","","","","","","","",""
"","","","","","image-keyboard-response","490","2.0.0","509771","px2utorg010","axolotl","null","stimuli/kitchen_54.jpg","null","","","","","","","","","","",""
"","","","","","image-keyboard-response","491","2.0.0","510777","px2utorg010","axolotl","null","stimuli/stream_35.jpg","null","","","","","","","","","","",""
"","","","","","image-keyboard-response","492","2.0.0","511785","px2utorg010","axolotl","null","stimuli/coast_33.jpg","null","","","","","","","","","","",""
"","","","","","html-keyboard-response","493","2.0.0","511820","px2utorg010","axolotl","35","<p>Press '1' if the first sequence was familiar, '2' if the second was.</p>","1","","","1","","","","[""G"",""H"",""I""]","[""D"",""H"",""L""]","true","[""<p>Sequence 1</p>"",""stimuli/woods_64.jpg"",""stimuli/stream_35.jpg"",""stimuli/desert_28.jpg""]","[""<p>Sequence 2</p>"",""stimuli/kitchen_54.jpg"",""stimuli/stream_35.jpg"",""stimuli/coast_33.jpg""]"
"","","","","","html-keyboard-response","494","2.0.0","512826","px2utorg010","axolotl","null","<p>Sequence 1</p>","null","","","","","","","","","","",""
"","","","","","image-keyboard-response","495","2.0.0","513833","px2utorg010","axolotl","null","stimuli/playground_30.jpg","null","","","","","","","","","","",""
"","","","","","image-keyboard-response","496","2.0.0","514844","px2utorg010","axolotl","null","stimuli/bar_50.jpg","null","","","","","","","","","","",""
"","","","","","image-keyboard-response","497","2.0.0","515851","px2utorg010","axolotl","null","stimuli/coast_33.jpg","null","","","","","","","","","","",""
"","","","","","html-keyboard-response","498","2.0.0","516862","px2utorg010","axolotl","null","<p></p>","null","","","","","","","","","","",""
"","","","","","html-keyboard-response","499","2.0.0","517870","px2utorg010","axolotl","null","<p>Sequence 2</p>","null","","","","","","","","","","",""
"","","","","","image-keyboard-response","500","2.0.0","518878","px2utorg010","axolotl","null","stimuli/kitchen_54.jpg","null","","","","","","","","","","",""
