"success","timeout","failed_images","failed_audio","failed_video","trial_type","trial_index","plugin_version","time_elapsed","random_id","participant","rt","stimulus","response","category","letter","correct_response","correct_response_key","trial_counter","current_image","test_triplet","foil_triplet","correct","firstSequencePaths","secondSequencePaths"
"true","false","[]","[]","[]","preload","0","2.0.0","438","pypx0kongsf","jaguar","","","","","","","","","","","","","",""
"true","","","","","fullscreen","1","null","3082","pypx0kongsf","jaguar","1641","","","","","","","","","","","","",""
"","","","","","html-keyboard-response","2","2.0.0","4037","pypx0kongsf","jaguar","950","Welcome to the experiment. Press any key to begin.","f","","","","","","","","","","",""
"","","","","","survey-text","3","2.0.0","8299","pypx0kongsf","jaguar","4240","","{""participant_id"":""jaguar""}","","","","","","","","","","",""
"","","","","","html-keyboard-response","4","2.0.0","34771","pypx0kongsf","jaguar","26468","
  <p>For this trial, you will see a series of images.</p>
  <p><b>Press the spacebar whenever you see the same image appear twice in a row.</b></p>
  <p>In other words, whenever the same image repeats back to back, press the spacebar.</p>
  <p>Press any key to begin.</p>","f","","","","","","","","","","",""
"","","","","","image-keyboard-response","5","2.0.0","35782","pypx0kongsf","jaguar","null","stimuli/stream_39.jpg","null","stream","D","non-repeat","null","0","stimuli/stream_39.jpg","","","","",""
"","","","","","image-keyboard-response","6","2.0.0","36792","pypx0kongsf","jaguar","null","stimuli/stream_39.jpg","null","stream","D","repeat"," ","0","","","","","",""
"","","","","","image-keyboard-response","7","2.0.0","37803","pypx0kongsf","jaguar","null","stimuli/playground_46.jpg","null","playground","E","non-repeat","null","1","stimuli/playground_46.jpg","","","","",""
"","","","","","image-keyboard-response","8","2.0.0","38813","pypx0kongsf","jaguar","null","stimuli/field_59.jpg","null","field","F","non-repeat","null","2","stimuli/field_59.jpg","","","","",""
"","","","","","image-keyboard-response","9","2.0.0","39824","pypx0kongsf","jaguar","null","stimuli/bridge_25.jpg","null","bridge","G","non-repeat","null","3","stimuli/bridge_25.jpg","","","","",""
"","","","","","image-keyboard-response","10","2.0.0","40835","pypx0kongsf","jaguar","440","stimuli/bridge_25.jpg"," ","bridge","G","repeat"," ","3","","","","","",""
"","","","","","image-keyboard-response","11","2.0.0","41845","pypx0kongsf","jaguar","null","stimuli/gym_32.jpg","null","gym","H","non-repeat","null","4","stimuli/gym_32.jpg","","","","",""
"","","","","","image-keyboard-response","12","2.0.0","42856","pypx0kongsf","jaguar","null","stimuli/street_62.jpg","null","street","I","non-repeat","null","5","stimuli/street_62.jpg","","","","",""
"","","","","","image-keyboard-response","13","2.0.0","43867","pypx0kongsf","jaguar","null","stimuli/desert_46.jpg","null","desert","A","non-repeat","null","6","stimuli/desert_46.jpg","","","","",""
"","","","","","image-keyboard-response","14","2.0.0","44878","pypx0kongsf","jaguar","null","stimuli/bathroom_22.jpg","null","bathroom","B","non-repeat","null","7","stimuli/bathroom_22.jpg","","","","",""
"","","","","","image-keyboard-response","15","2.0.0","45889","pypx0kongsf","jaguar","null","stimuli/coast_9.jpg","null","coast","C","non-repeat","null","8","stimuli/coast_9.jpg","","","","",""
"","","","","","image-keyboard-response","16","2.0.0","46898","pypx0kongsf","jaguar","null","stimuli/bridge_25.jpg","null","bridge","G","non-repeat","null","9","stimuli/bridge_25.jpg","","","","",""
"","","","","","image-keyboard-response","17","2.0.0","47908","pypx0kongsf","jaguar","null","stimuli/gym_32.jpg","null","gym","H","non-repeat","null","10","stimuli/gym_32.jpg","","","","",""
"","","","","","image-keyboard-response","18","2.0.0","48918","pypx0kongsf","jaguar","null","stimuli/street_62.jpg","null","street","I","non-repeat","null","11","stimuli/street_62.jpg","","","","",""
"","","","","","image-keyboard-response","19","2.0.0","49928","pypx0kongsf","jaguar","null","stimuli/desert_46.jpg","null","desert","A","non-repeat","null","12","stimuli/desert_46.jpg","","","","",""
"","","","","","image-keyboard-response","20","2.0.0","50937","pypx0kongsf","jaguar","null","stimuli/bathroom_22.jpg","null","bathroom","B","non-repeat","null","13","stimuli/bathroom_22.jpg","","","","",""
"","","","","","image-keyboard-response","21","2.0.0","51946","pypx0kongsf","jaguar","null","stimuli/coast_9.jpg","null","coast","C","non-repeat","null","14","stimuli/coast_9.jpg","","","","",""
"","","","","","image-keyboard-response","22","2.0.0","52958","pypx0kongsf","jaguar","null","stimuli/kitchen_62.jpg","null","kitchen","J","non-repeat","null","15","stimuli/kitchen_62.jpg","","","","",""
"","","","","","image-keyboard-response","23","2.0.0","53970","pypx0kongsf","jaguar","null","stimuli/bar_52.jpg","null","bar","K","non-repeat","null","16","stimuli/bar_52.jpg","","","","",""
"","","","","","image-keyboard-response","24","2.0.0","54980","pypx0kongsf","jaguar","null","stimuli/woods_61.jpg","null","woods","L","non-repeat","null","17","stimuli/woods_61.jpg","","","","",""
"","","","","","image-keyboard-response","25","2.0.0","55989","pypx0kongsf","jaguar","null","stimuli/bridge_25.jpg","null","bridge","G","non-repeat","null","18","stimuli/bridge_25.jpg","","","","",""
"","","","","","image-keyboard-response","26","2.0.0","56999","pypx0kongsf","jaguar","567","stimuli/bridge_25.jpg"," ","bridge","G","repeat"," ","18","","","","","",""
"","","","","","image-keyboard-response","27","2.0.0","58008","pypx0kongsf","jaguar","null","stimuli/gym_32.jpg","null","gym","H","non-repeat","null","19","stimuli/gym_32.jpg","","","","",""
"","","","","","image-keyboard-response","28","2.0.0","59017","pypx0kongsf","jaguar","null","stimuli/street_62.jpg","null","street","I","non-repeat","null","20","stimuli/street_62.jpg","","","","",""
"","","","","","image-keyboard-response","29","2.0.0","60027","pypx0kongsf","jaguar","508","stimuli/street_62.jpg"," ","street","I","repeat"," ","20","","","","","",""
"","","","","","image-keyboard-response","30","2.0.0","61035","pypx0kongsf","jaguar","null","stimuli/desert_46.jpg","null","desert","A","non-repeat","null","21","stimuli/desert_46.jpg","","","","",""
"","","","","","image-keyboard-response","31","2.0.0","62044","pypx0kongsf","jaguar","null","stimuli/bathroom_22.jpg","null","bathroom","B","non-repeat","null","22","stimuli/bathroom_22.jpg","","","","",""
"","","","","","image-keyboard-response","32","2.0.0","63053","pypx0kongsf","jaguar","null","stimuli/coast_9.jpg","null","coast","C","non-repeat","null","23","stimuli/coast_9.jpg","","","","",""
"","","","","","image-keyboard-response","33","2.0.0","64064","pypx0kongsf","jaguar","512","stimuli/coast_9.jpg"," ","coast","C","repeat"," ","23","","","","","",""
"","","","","","image-keyboard-response","34","2.0.0","65073","pypx0kongsf","jaguar","null","stimuli/bridge_25.jpg","null","bridge","G","non-repeat","null","24","stimuli/bridge_25.jpg","","","","",""
"","","","","","image-keyboard-response","35","2.0.0","66082","pypx0kongsf","jaguar","364","stimuli/bridge_25.jpg"," ","bridge","G","repeat"," ","24","","","","","",""
"","","","","","image-keyboard-response","36","2.0.0","67091","pypx0kongsf","jaguar","null","stimuli/gym_32.jpg","null","gym","H","non-repeat","null","25","stimuli/gym_32.jpg","","","","",""
"","","","","","image-keyboard-response","37","2.0.0","68099","pypx0kongsf","jaguar","null","stimuli/street_62.jpg","null","street","I","non-repeat","null","26","stimuli/street_62.jpg","","","","",""
"","","","","","image-keyboard-response","38","2.0.0","69108","pypx0kongsf","jaguar","null","stimuli/kitchen_62.jpg","null","kitchen","J","non-repeat","null","27","stimuli/kitchen_62.jpg","","","","",""
"","","","","","image-keyboard-response","39","2.0.0","70116","pypx0kongsf","jaguar","null","stimuli/bar_52.jpg","null","bar","K","non-repeat","null","28","stimuli/bar_52.jpg","","","","",""
"","","","","","image-keyboard-response","40","2.0.0","71126","pypx0kongsf","jaguar","null","stimuli/woods_61.jpg","null","woods","L","non-repeat","null","29","stimuli/woods_61.jpg","","","","",""
"","","","","","image-keyboard-response","41","2.0.0","72137","pypx0kongsf","jaguar","null","stimuli/desert_46.jpg","null","desert","A","non-repeat","null","30","stimuli/desert_46.jpg","","","","",""
"","","","","","image-keyboard-response","42","2.0.0","73146","pypx0kongsf","jaguar","null","stimuli/bathroom_22.jpg","null","bathroom","B","non-repeat","null","31","stimuli/bathroom_22.jpg","","","","",""
"","","","","","image-keyboard-response","43","2.0.0","74158","pypx0kongsf","jaguar","null","stimuli/coast_9.jpg","null","coast","C","non-repeat","null","32","stimuli/coast_9.jpg","","","","",""
"","","","","","image-keyboard-response","44","2.0.0","75165","pypx0kongsf","jaguar","null","stimuli/kitchen_62.jpg","null","kitchen","J","non-repeat","null","33","stimuli/kitchen_62.jpg","","","","",""
"","","","","","image-keyboard-response","45","2.0.0","76175","pypx0kongsf","jaguar","null","stimuli/bar_52.jpg","null","bar","K","non-repeat","null","34","stimuli/bar_52.jpg","","","","",""
"","","","","","image-keyboard-response","46","2.0.0","77185","pypx0kongsf","jaguar","null","stimuli/woods_61.jpg","null","woods","L","non-repeat","null","35","stimuli/woods_61.jpg","","","","",""
"","","","","","image-keyboard-response","47","2.0.0","78195","pypx0kongsf","jaguar","null","stimuli/desert_46.jpg","null","desert","A","non-repeat","null","36","stimuli/desert_46.jpg","","","","",""
"","","","","","image-keyboard-response","48","2.0.0","79203","pypx0kongsf","jaguar","535","stimuli/desert_46.jpg"," ","desert","A","repeat"," ","36","","","","","",""
"","","","","","image-keyboard-response","49","2.0.0","80212","pypx0kongsf","jaguar","null","stimuli/bathroom_22.jpg","null","bathroom","B","non-repeat","null","37","stimuli/bathroom_22.jpg","","","","",""
"","","","","","image-keyboard-response","50","2.0.0","81220","pypx0kongsf","jaguar","null","stimuli/coast_9.jpg","null","coast","C","non-repeat","null","38","stimuli/coast_9.jpg","","","","",""
"","","","","","image-keyboard-response","51","2.0.0","82229","pypx0kongsf","jaguar","null","stimuli/kitchen_62.jpg","null","kitchen","J","non-repeat","null","39","stimuli/kitchen_62.jpg","","","","",""
"","","","","","image-keyboard-response","52","2.0.0","83237","pypx0kongsf","jaguar","550","stimuli/kitchen_62.jpg"," ","kitchen","J","repeat"," ","39","","","","","",""
"","","","","","image-keyboard-response","53","2.0.0","84246","pypx0kongsf","jaguar","null","stimuli/bar_52.jpg","null","bar","K","non-repeat","null","40","stimuli/bar_52.jpg","","","","",""
"","","","","","image-keyboard-response","54","2.0.0","85255","pypx0kongsf","jaguar","null","stimuli/woods_61.jpg","null","woods","L","non-repeat","null","41","stimuli/woods_61.jpg","","","","",""
"","","","","","image-keyboard-response","55","2.0.0","86264","pypx0kongsf","jaguar","null","stimuli/stream_39.jpg","null","stream","D","non-repeat","null","42","stimuli/stream_39.jpg","","","","",""
"","","","","","image-keyboard-response","56","2.0.0","87272","pypx0kongsf","jaguar","null","stimuli/playground_46.jpg","null","playground","E","non-repeat","null","43","stimuli/playground_46.jpg","","","","",""
"","","","","","image-keyboard-response","57","2.0.0","88284","pypx0kongsf","jaguar","null","stimuli/field_59.jpg","null","field","F","non-repeat","null","44","stimuli/field_59.jpg","","","","",""
"","","","","","image-keyboard-response","58","2.0.0","89292","pypx0kongsf","jaguar","null","stimuli/kitchen_62.jpg","null","kitchen","J","non-repeat","null","45","stimuli/kitchen_62.jpg","","","","",""
"","","","","","image-keyboard-response","59","2.0.0","90298","pypx0kongsf","jaguar","null","stimuli/bar_52.jpg","null","bar","K","non-repeat","null","46","stimuli/bar_52.jpg","","","","",""
"","","","","","image-keyboard-response","60","2.0.0","91308","pypx0kongsf","jaguar","null","stimuli/woods_61.jpg","null","woods","L","non-repeat","null","47","stimuli/woods_61.jpg","","","","",""
"","","","","","image-keyboard-response","61","2.0.0","92317","pypx0kongsf","jaguar","null","stimuli/bridge_25.jpg","null","bridge","G","non-repeat","null","48","stimuli/bridge_25.jpg","","","","",""
"","","","","","image-keyboard-response","62","2.0.0","93325","pypx0kongsf","jaguar","null","stimuli/gym_32.jpg","null","gym","H","non-repeat","null","49","stimuli/gym_32.jpg","","","","",""
"","","","","","image-keyboard-response","63","2.0.0","94336","pypx0kongsf","jaguar","null","stimuli/street_62.jpg","null","street","I","non-repeat","null","50","stimuli/street_62.jpg","","","","",""
"","","","","","image-keyboard-response","64","2.0.0","95345","pypx0kongsf","jaguar","null","stimuli/kitchen_62.jpg","null","kitchen","J","non-repeat","null","51","stimuli/kitchen_62.jpg","","","","",""
"","","","","","image-keyboard-response","65","2.0.0","96353","pypx0kongsf","jaguar","388","stimuli/kitchen_62.jpg"," ","kitchen","J","repeat"," ","51","","","","","",""
"","","","","","image-keyboard-response","66","2.0.0","97363","pypx0kongsf","jaguar","null","stimuli/bar_52.jpg","null","bar","K","non-repeat","null","52","stimuli/bar_52.jpg","","","","",""
"","","","","","image-keyboard-response","67","2.0.0","98374","pypx0kongsf","jaguar","null","stimuli/woods_61.jpg","null","woods","L","non-repeat","null","53","stimuli/woods_61.jpg","","","","",""
"","","","","","image-keyboard-response","68","2.0.0","99382","pypx0kongsf","jaguar","null","stimuli/stream_39.jpg","null","stream","D","non-repeat","null","54","stimuli/stream_39.jpg","","","","",""
"","","","","","image-keyboard-response","69","2.0.0","100390","pypx0kongsf","jaguar","null","stimuli/playground_46.jpg","null","playground","E","non-repeat","null","55","stimuli/playground_46.jpg","","","","",""
"","","","","","image-keyboard-response","70","2.0.0","101398","pypx0kongsf","jaguar","null","stimuli/field_59.jpg","null","field","F","non-repeat","null","56","stimuli/field_59.jpg","","","","",""
"","","","","","image-keyboard-response","71","2.0.0","102405","pypx0kongsf","jaguar","null","stimuli/desert_46.jpg","null","desert","A","non-repeat","null","57","stimuli/desert_46.jpg","","","","",""
"","","","","","image-keyboard-response","72","2.0.0","103414","pypx0kongsf","jaguar","null","stimuli/bathroom_22.jpg","null","bathroom","B","non-repeat","null","58","stimuli/bathroom_22.jpg","","","","",""
"","","","","","image-keyboard-response","73","2.0.0","104423","pypx0kongsf","jaguar","null","stimuli/coast_9.jpg","null","coast","C","non-repeat","null","59","stimuli/coast_9.jpg","","","","",""
"","","","","","image-keyboard-response","74","2.0.0","105432","pypx0kongsf","jaguar","497","stimuli/coast_9.jpg"," ","coast","C","repeat"," ","59","","","","","",""
"","","","","","image-keyboard-response","75","2.0.0","106440","pypx0kongsf","jaguar","null","stimuli/bridge_25.jpg","null","bridge","G","non-repeat","null","60","stimuli/bridge_25.jpg","","","","",""
"","","","","","image-keyboard-response","76","2.0.0","107449","pypx0kongsf","jaguar","null","stimuli/gym_32.jpg","null","gym","H","non-repeat","null","61","stimuli/gym_32.jpg","","","","",""
"","","","","","image-keyboard-response","77","2.0.0","108459","pypx0kongsf","jaguar","null","stimuli/street_62.jpg","null","street","I","non-repeat","null","62","stimuli/street_62.jpg","","","","",""
"","","","","","image-keyboard-response","78","2.0.0","109468","pypx0kongsf","jaguar","null","stimuli/stream_39.jpg","null","stream","D","non-repeat","null","63","stimuli/stream_39.jpg","","","","",""
"","","","","","image-keyboard-response","79","2.0.0","110479","pypx0kongsf","jaguar","null","stimuli/playground_46.jpg","null","playground","E","non-repeat","null","64","stimuli/playground_46.jpg","","","","",""
"","","","","","image-keyboard-response","80","2.0.0","111488","pypx0kongsf","jaguar","null","stimuli/field_59.jpg","null","field","F","non-repeat","null","65","stimuli/field_59.jpg","","","","",""
"","","","","","image-keyboard-response","81","2.0.0","112500","pypx0kongsf","jaguar","null","stimuli/bridge_25.jpg","null","bridge","G","non-repeat","null","66","stimuli/bridge_25.jpg","","","","",""
"","","","","","image-keyboard-response","82","2.0.0","113509","pypx0kongsf","jaguar","null","stimuli/gym_32.jpg","null","gym","H","non-repeat","null","67","stimuli/gym_32.jpg","","","","",""
"","","","","","image-keyboard-response","83","2.0.0","114518","pypx0kongsf","jaguar","null","stimuli/street_62.jpg","null","street","I","non-repeat","null","68","stimuli/street_62.jpg","","","","",""
"","","","","","image-keyboard-response","84","2.0.0","115528","pypx0kongsf","jaguar","625","stimuli/street_62.jpg"," ","street","I","repeat"," ","68","","","","","",""
"","","","","","image-keyboard-response","85","2.0.0","116536","pypx0kongsf","jaguar","null","stimuli/kitchen_62.jpg","null","kitchen","J","non-repeat","null","69","stimuli/kitchen_62.jpg","","","","",""
"","","","","","image-keyboard-response","86","2.0.0","117544","pypx0kongsf","jaguar","null","stimuli/bar_52.jpg","null","bar","K","non-repeat","null","70","stimuli/bar_52.jpg","","","","",""
"","","","","","image-keyboard-response","87","2.0.0","118555","pypx0kongsf","jaguar","null","stimuli/woods_61.jpg","null","woods","L","non-repeat","null","71","stimuli/woods_61.jpg","","","","",""
"","","","","","image-keyboard-response","88","2.0.0","119565","pypx0kongsf","jaguar","null","stimuli/stream_39.jpg","null","stream","D","non-repeat","null","72","stimuli/stream_39.jpg","","","","",""
"","","","","","image-keyboard-response","89","2.0.0","120575","pypx0kongsf","jaguar","null","stimuli/playground_46.jpg","null","playground","E","non-repeat","null","73","stimuli/playground_46.jpg","","","","",""
"","","","","","image-keyboard-response","90","2.0.0","121582","pypx0kongsf","jaguar","null","stimuli/field_59.jpg","null","field","F","non-repeat","null","74","stimuli/field_59.jpg","","","","",""
"","","","","","image-keyboard-response","91","2.0.0","122592","pypx0kongsf","jaguar","null","stimuli/bridge_25.jpg","null","bridge","G","non-repeat","null","75","stimuli/bridge_25.jpg","","","","",""
"","","","","","image-keyboard-response","92","2.0.0","123600","pypx0kongsf","jaguar","null","stimuli/gym_32.jpg","null","gym","H","non-repeat","null","76","stimuli/gym_32.jpg","","","","",""
"","","","","","image-keyboard-response","93","2.0.0","124608","pypx0kongsf","jaguar","null","stimuli/street_62.jpg","null","street","I","non-repeat","null","77","stimuli/street_62.jpg","","","","",""
"","","","","","image-keyboard-response","94","2.0.0","125617","pypx0kongsf","jaguar","null","stimuli/stream_39.jpg","null","stream","D","non-repeat","null","78","stimuli/stream_39.jpg","","","","",""
"","","","","","image-keyboard-response","95","2.0.0","126627","pypx0kongsf","jaguar","null","stimuli/playground_46.jpg","null","playground","E","non-repeat","null","79","stimuli/playground_46.jpg","","","","",""
"","","","","","image-keyboard-response","96","2.0.0","127635","pypx0kongsf","jaguar","null","stimuli/field_59.jpg","null","field","F","non-repeat","null","80","stimuli/field_59.jpg","","","","",""
"","","","","","image-keyboard-response","97","2.0.0","128645","pypx0kongsf","jaguar","null","stimuli/desert_46.jpg","null","desert","A","non-repeat","null","81","stimuli/desert_46.jpg","","","","",""
"","","","","","image-keyboard-response","98","2.0.0","129653","pypx0kongsf","jaguar","null","stimuli/bathroom_22.jpg","null","bathroom","B","non-repeat","null","82","stimuli/bathroom_22.jpg","","","","",""
"","","","","","image-keyboard-response","99","2.0.0","130663","pypx0kongsf","jaguar","null","stimuli/coast_9.jpg","null","coast","C","non-repeat","null","83","stimuli/coast_9.jpg","","","","",""
"","","","","","image-keyboard-response","100","2.0.0","131672","pypx0kongsf","jaguar","null","stimuli/kitchen_62.jpg","null","kitchen","J","non-repeat","null","84","stimuli/kitchen_62.jpg","","","","",""
"","","","","","image-keyboard-response","101","2.0.0","132681","pypx0kongsf","jaguar","null","stimuli/bar_52.jpg","null","bar","K","non-repeat","null","85","stimuli/bar_52.jpg","","","","",""
"","","","","","image-keyboard-response","102","2.0.0","133691","pypx0kongsf","jaguar","null","stimuli/woods_61.jpg","null","woods","L","non-repeat","null","86","stimuli/woods_61.jpg","","","","",""
"","","","","","image-keyboard-response","103","2.0.0","134699","pypx0kongsf","jaguar","632","stimuli/woods_61.jpg"," ","woods","L","repeat"," ","86","","","","","",""
"","","","","","image-keyboard-response","104","2.0.0","135709","pypx0kongsf","jaguar","null","stimuli/stream_39.jpg","null","stream","D","non-repeat","null","87","stimuli/stream_39.jpg","","","","",""
"","","","","","image-keyboard-response","105","2.0.0","136720","pypx0kongsf","jaguar","null","stimuli/playground_46.jpg","null","playground","E","non-repeat","null","88","stimuli/playground_46.jpg","","","","",""
"","","","","","image-keyboard-response","106","2.0.0","137728","pypx0kongsf","jaguar","null","stimuli/field_59.jpg","null","field","F","non-repeat","null","89","stimuli/field_59.jpg","","","","",""
"","","","","","image-keyboard-response","107","2.0.0","138738","pypx0kongsf","jaguar","null","stimuli/bridge_25.jpg","null","bridge","G","non-repeat","null","90","stimuli/bridge_25.jpg","","","","",""
"","","","","","image-keyboard-response","108","2.0.0","139749","pypx0kongsf","jaguar","null","stimuli/gym_32.jpg","null","gym","H","non-repeat","null","91","stimuli/gym_32.jpg","","","","",""
"","","","","","image-keyboard-response","109","2.0.0","140758","pypx0kongsf","jaguar","null","stimuli/street_62.jpg","null","street","I","non-repeat","null","92","stimuli/street_62.jpg","","","","",""
"","","","","","image-keyboard-response","110","2.0.0","141766","pypx0kongsf","jaguar","null","stimuli/kitchen_62.jpg","null","kitchen","J","non-repeat","null","93","stimuli/kitchen_62.jpg","","","","",""
"","","","","","image-keyboard-response","111","2.0.0","142774","pypx0kongsf","jaguar","612","stimuli/kitchen_62.jpg"," ","kitchen","J","repeat"," ","93","","","","","",""
"","","","","","image-keyboard-response","112","2.0.0","143783","pypx0kongsf","jaguar","null","stimuli/bar_52.jpg","null","bar","K","non-repeat","null","94","stimuli/bar_52.jpg","","","","",""
"","","","","","image-keyboard-response","113","2.0.0","144791","pypx0kongsf","jaguar","null","stimuli/woods_61.jpg","null","woods","L","non-repeat","null","95","stimuli/woods_61.jpg","","","","",""
"","","","","","image-keyboard-response","114","2.0.0","145800","pypx0kongsf","jaguar","571","stimuli/woods_61.jpg"," ","woods","L","repeat"," ","95","","","","","",""
"","","","","","image-keyboard-response","115","2.0.0","146808","pypx0kongsf","jaguar","null","stimuli/bridge_25.jpg","null","bridge","G","non-repeat","null","96","stimuli/bridge_25.jpg","","","","",""
"","","","","","image-keyboard-response","116","2.0.0","147817","pypx0kongsf","jaguar","null","stimuli/gym_32.jpg","null","gym","H","non-repeat","null","97","stimuli/gym_32.jpg","","","","",""
"","","","","","image-keyboard-response","117","2.0.0","148827","pypx0kongsf","jaguar","null","stimuli/street_62.jpg","null","street","I","non-repeat","null","98","stimuli/street_62.jpg","","","","",""
"","","","","","image-keyboard-response","118","2.0.0","149838","pypx0kongsf","jaguar","null","stimuli/stream_39.jpg","null","stream","D","non-repeat","null","99","stimuli/stream_39.jpg","","","","",""
"","","","","","image-keyboard-response","119","2.0.0","150846","pypx0kongsf","jaguar","355","stimuli/stream_39.jpg"," ","stream","D","repeat"," ","99","","","","","",""
"","","","","","image-keyboard-response","120","2.0.0","151857","pypx0kongsf","jaguar","null","stimuli/playground_46.jpg","null","playground","E","non-repeat","null","100","stimuli/playground_46.jpg","","","","",""
"","","","","","image-keyboard-response","121","2.0.0","152868","pypx0kongsf","jaguar","null","stimuli/field_59.jpg","null","field","F","non-repeat","null","101","stimuli/field_59.jpg","","","","",""
"","","","","","image-keyboard-response","122","2.0.0","153877","pypx0kongsf","jaguar","null","stimuli/kitchen_62.jpg","null","kitchen","J","non-repeat","null","102","stimuli/kitchen_62.jpg","","","","",""
"","","","","","image-keyboard-response","123","2.0.0","154887","pypx0kongsf","jaguar","null","stimuli/bar_52.jpg","null","bar","K","non-repeat","null","103","stimuli/bar_52.jpg","","","","",""
"","","","","","image-keyboard-response","124","2.0.0","155896","pypx0kongsf","jaguar","null","stimuli/woods_61.jpg","null","woods","L","non-repeat","null","104","stimuli/woods_61.jpg","","","","",""
"","","","","","image-keyboard-response","125","2.0.0","156907","pypx0kongsf","jaguar","null","stimuli/desert_46.jpg","null","desert","A","non-repeat","null","105","stimuli/desert_46.jpg","","","","",""
"","","","","","image-keyboard-response","126","2.0.0","157918","pypx0kongsf","jaguar","null","stimuli/bathroom_22.jpg","null","bathroom","B","non-repeat","null","106","stimuli/bathroom_22.jpg","","","","",""
"","","","","","image-keyboard-response","127","2.0.0","158938","pypx0kongsf","jaguar","null","stimuli/coast_9.jpg","null","coast","C","non-repeat","null","107","stimuli/coast_9.jpg","","","","",""
"","","","","","image-keyboard-response","128","2.0.0","159941","pypx0kongsf","jaguar","null","stimuli/kitchen_62.jpg","null","kitchen","J","non-repeat","null","108","stimuli/kitchen_62.jpg","","","","",""
"","","","","","image-keyboard-response","129","2.0.0","160949","pypx0kongsf","jaguar","521","stimuli/kitchen_62.jpg"," ","kitchen","J","repeat"," ","108","","","","","",""
"","","","","","image-keyboard-response","130","2.0.0","161957","pypx0kongsf","jaguar","null","stimuli/bar_52.jpg","null","bar","K","non-repeat","null","109","stimuli/bar_52.jpg","","","","",""
"","","","","","image-keyboard-response","131","2.0.0","162965","pypx0kongsf","jaguar","null","stimuli/woods_61.jpg","null","woods","L","non-repeat","null","110","stimuli/woods_61.jpg","","","","",""
"","","","","","image-keyboard-response","132","2.0.0","163974","pypx0kongsf","jaguar","569","stimuli/woods_61.jpg"," ","woods","L","repeat"," ","110","","","","","",""
"","","","","","image-keyboard-response","133","2.0.0","164983","pypx0kongsf","jaguar","null","stimuli/stream_39.jpg","null","stream","D","non-repeat","null","111","stimuli/stream_39.jpg","","","","",""
"","","","","","image-keyboard-response","134","2.0.0","165993","pypx0kongsf","jaguar","null","stimuli/playground_46.jpg","null","playground","E","non-repeat","null","112","stimuli/playground_46.jpg","","","","",""
"","","","","","image-keyboard-response","135","2.0.0","167002","pypx0kongsf","jaguar","null","stimuli/field_59.jpg","null","field","F","non-repeat","null","113","stimuli/field_59.jpg","","","","",""
"","","","","","image-keyboard-response","136","2.0.0","168013","pypx0kongsf","jaguar","null","stimuli/desert_46.jpg","null","desert","A","non-repeat","null","114","stimuli/desert_46.jpg","","","","",""
"","","","","","image-keyboard-response","137","2.0.0","169022","pypx0kongsf","jaguar","null","stimuli/bathroom_22.jpg","null","bathroom","B","non-repeat","null","115","stimuli/bathroom_22.jpg","","","","",""
"","","","","","image-keyboard-response","138","2.0.0","170030","pypx0kongsf","jaguar","null","stimuli/coast_9.jpg","null","coast","C","non-repeat","null","116","stimuli/coast_9.jpg","","","","",""
"","","","","","image-keyboard-response","139","2.0.0","171041","pypx0kongsf","jaguar","null","stimuli/bridge_25.jpg","null","bridge","G","non-repeat","null","117","stimuli/bridge_25.jpg","","","","",""
"","","","","","image-keyboard-response","140","2.0.0","172048","pypx0kongsf","jaguar","null","stimuli/gym_32.jpg","null","gym","H","non-repeat","null","118","stimuli/gym_32.jpg","","","","",""
"","","","","","image-keyboard-response","141","2.0.0","173055","pypx0kongsf","jaguar","null","stimuli/street_62.jpg","null","street","I","non-repeat","null","119","stimuli/street_62.jpg","","","","",""
"","","","","","image-keyboard-response","142","2.0.0","174063","pypx0kongsf","jaguar","630","stimuli/street_62.jpg"," ","street","I","repeat"," ","119","","","","","",""
"","","","","","image-keyboard-response","143","2.0.0","175071","pypx0kongsf","jaguar","null","stimuli/desert_46.jpg","null","desert","A","non-repeat","null","120","stimuli/desert_46.jpg","","","","",""
"","","","","","image-keyboard-response","144","2.0.0","176079","pypx0kongsf","jaguar","null","stimuli/bathroom_22.jpg","null","bathroom","B","non-repeat","null","121","stimuli/bathroom_22.jpg","","","","",""
"","","","","","image-keyboard-response","145","2.0.0","177088","pypx0kongsf","jaguar","null","stimuli/coast_9.jpg","null","coast","C","non-repeat","null","122","stimuli/coast_9.jpg","","","","",""
"","","","","","image-keyboard-response","146","2.0.0","178100","pypx0kongsf","jaguar","674","stimuli/coast_9.jpg"," ","coast","C","repeat"," ","122","","","","","",""
"","","","","","image-keyboard-response","147","2.0.0","179107","pypx0kongsf","jaguar","null","stimuli/bridge_25.jpg","null","bridge","G","non-repeat","null","123","stimuli/bridge_25.jpg","","","","",""
"","","","","","image-keyboard-response","148","2.0.0","180117","pypx0kongsf","jaguar","null","stimuli/gym_32.jpg","null","gym","H","non-repeat","null","124","stimuli/gym_32.jpg","","","","",""
"","","","","","image-keyboard-response","149","2.0.0","181126","pypx0kongsf","jaguar","null","stimuli/street_62.jpg","null","street","I","non-repeat","null","125","stimuli/street_62.jpg","","","","",""
"","","","","","image-keyboard-response","150","2.0.0","182135","pypx0kongsf","jaguar","null","stimuli/stream_39.jpg","null","stream","D","non-repeat","null","126","stimuli/stream_39.jpg","","","","",""
"","","","","","image-keyboard-response","151","2.0.0","183143","pypx0kongsf","jaguar","null","stimuli/playground_46.jpg","null","playground","E","non-repeat","null","127","stimuli/playground_46.jpg","","","","",""
"","","","","","image-keyboard-response","152","2.0.0","184155","pypx0kongsf","jaguar","null","stimuli/field_59.jpg","null","field","F","non-repeat","null","128","stimuli/field_59.jpg","","","","",""
"","","","","","image-keyboard-response","153","2.0.0","185164","pypx0kongsf","jaguar","null","stimuli/bridge_25.jpg","null","bridge","G","non-repeat","null","129","stimuli/bridge_25.jpg","","","","",""
"","","","","","image-keyboard-response","154","2.0.0","186174","pypx0kongsf","jaguar","520","stimuli/bridge_25.jpg"," ","bridge","G","repeat"," ","129","","","","","",""
"","","","","","image-keyboard-response","155","2.0.0","187185","pypx0kongsf","jaguar","null","stimuli/gym_32.jpg","null","gym","H","non-repeat","null","130","stimuli/gym_32.jpg","","","","",""
"","","","","","image-keyboard-response","156","2.0.0","188193","pypx0kongsf","jaguar","null","stimuli/street_62.jpg","null","street","I","non-repeat","null","131","stimuli/street_62.jpg","","","","",""
"","","","","","image-keyboard-response","157","2.0.0","189204","pypx0kongsf","jaguar","null","stimuli/desert_46.jpg","null","desert","A","non-repeat","null","132","stimuli/desert_46.jpg","","","","",""
"","","","","","image-keyboard-response","158","2.0.0","190212","pypx0kongsf","jaguar","null","stimuli/bathroom_22.jpg","null","bathroom","B","non-repeat","null","133","stimuli/bathroom_22.jpg","","","","",""
"","","","","","image-keyboard-response","159","2.0.0","191220","pypx0kongsf","jaguar","null","stimuli/coast_9.jpg","null","coast","C","non-repeat","null","134","stimuli/coast_9.jpg","","","","",""
"","","","","","image-keyboard-response","160","2.0.0","192229","pypx0kongsf","jaguar","435","stimuli/coast_9.jpg"," ","coast","C","repeat"," ","134","","","","","",""
"","","","","","image-keyboard-response","161","2.0.0","193238","pypx0kongsf","jaguar","null","stimuli/stream_39.jpg","null","stream","D","non-repeat","null","135","stimuli/stream_39.jpg","","","","",""
"","","","","","image-keyboard-response","162","2.0.0","194247","pypx0kongsf","jaguar","null","stimuli/playground_46.jpg","null","playground","E","non-repeat","null","136","stimuli/playground_46.jpg","","","","",""
"","","","","","image-keyboard-response","163","2.0.0","195257","pypx0kongsf","jaguar","null","stimuli/field_59.jpg","null","field","F","non-repeat","null","137","stimuli/field_59.jpg","","","","",""
"","","","","","image-keyboard-response","164","2.0.0","196267","pypx0kongsf","jaguar","null","stimuli/kitchen_62.jpg","null","kitchen","J","non-repeat","null","138","stimuli/kitchen_62.jpg","","","","",""
"","","","","","image-keyboard-response","165","2.0.0","197276","pypx0kongsf","jaguar","null","stimuli/bar_52.jpg","null","bar","K","non-repeat","null","139","stimuli/bar_52.jpg","","","","",""
"","","","","","image-keyboard-response","166","2.0.0","198284","pypx0kongsf","jaguar","null","stimuli/woods_61.jpg","null","woods","L","non-repeat","null","140","stimuli/woods_61.jpg","","","","",""
"","","","","","image-keyboard-response","167","2.0.0","199293","pypx0kongsf","jaguar","null","stimuli/bridge_25.jpg","null","bridge","G","non-repeat","null","141","stimuli/bridge_25.jpg","","","","",""
"","","","","","image-keyboard-response","168","2.0.0","200305","pypx0kongsf","jaguar","null","stimuli/gym_32.jpg","null","gym","H","non-repeat","null","142","stimuli/gym_32.jpg","","","","",""
"","","","","","image-keyboard-response","169","2.0.0","201314","pypx0kongsf","jaguar","null","stimuli/street_62.jpg","null","street","I","non-repeat","null","143","stimuli/street_62.jpg","","","","",""
"","","","","","image-keyboard-response","170","2.0.0","202324","pypx0kongsf","jaguar","null","stimuli/stream_39.jpg","null","stream","D","non-repeat","null","144","stimuli/stream_39.jpg","","","","",""
"","","","","","image-keyboard-response","171","2.0.0","203333","pypx0kongsf","jaguar","598","stimuli/stream_39.jpg"," ","stream","D","repeat"," ","144","","","","","",""
"","","","","","image-keyboard-response","172","2.0.0","204341","pypx0kongsf","jaguar","null","stimuli/playground_46.jpg","null","playground","E","non-repeat","null","145","stimuli/playground_46.jpg","","","","",""
"","","","","","image-keyboard-response","173","2.0.0","205349","pypx0kongsf","jaguar","null","stimuli/field_59.jpg","null","field","F","non-repeat","null","146","stimuli/field_59.jpg","","","","",""
"","","","","","image-keyboard-response","174","2.0.0","206359","pypx0kongsf","jaguar","null","stimuli/bridge_25.jpg","null","bridge","G","non-repeat","null","147","stimuli/bridge_25.jpg","","","","",""
"","","","","","image-keyboard-response","175","2.0.0","207369","pypx0kongsf","jaguar","551","stimuli/bridge_25.jpg"," ","bridge","G","repeat"," ","147","","","","","",""
"","","","","","image-keyboard-response","176","2.0.0","208379","pypx0kongsf","jaguar","null","stimuli/gym_32.jpg","null","gym","H","non-repeat","null","148","stimuli/gym_32.jpg","","","","",""
"","","","","","image-keyboard-response","177","2.0.0","209390","pypx0kongsf","jaguar","null","stimuli/street_62.jpg","null","street","I","non-repeat","null","149","stimuli/street_62.jpg","","","","",""
"","","","","","image-keyboard-response","178","2.0.0","210399","pypx0kongsf","jaguar","null","stimuli/kitchen_62.jpg","null","kitchen","J","non-repeat","null","150","stimuli/kitchen_62.jpg","","","","",""
"","","","","","image-keyboard-response","179","2.0.0","211407","pypx0kongsf","jaguar","null","stimuli/bar_52.jpg","null","bar","K","non-repeat","null","151","stimuli/bar_52.jpg","","","","",""
"","","","","","image-keyboard-response","180","2.0.0","212419","pypx0kongsf","jaguar","null","stimuli/woods_61.jpg","null","woods","L","non-repeat","null","152","stimuli/woods_61.jpg","","","","",""
"","","","","","image-keyboard-response","181","2.0.0","213427","pypx0kongsf","jaguar","null","stimuli/stream_39.jpg","null","stream","D","non-repeat","null","153","stimuli/stream_39.jpg","","","","",""
"","","","","","image-keyboard-response","182","2.0.0","214437","pypx0kongsf","jaguar","null","stimuli/playground_46.jpg","null","playground","E","non-repeat","null","154","stimuli/playground_46.jpg","","","","",""
"","","","","","image-keyboard-response","183","2.0.0","215446","pypx0kongsf","jaguar","null","stimuli/field_59.jpg","null","field","F","non-repeat","null","155","stimuli/field_59.jpg","","","","",""
"","","","","","image-keyboard-response","184","2.0.0","216454","pypx0kongsf","jaguar","null","stimuli/kitchen_62.jpg","null","kitchen","J","non-repeat","null","156","stimuli/kitchen_62.jpg","","","","",""
"","","","","","image-keyboard-response","185","2.0.0","217463","pypx0kongsf","jaguar","null","stimuli/bar_52.jpg","null","bar","K","non-repeat","null","157","stimuli/bar_52.jpg","","","","",""
"","","","","","image-keyboard-response","186","2.0.0","218474","pypx0kongsf","jaguar","null","stimuli/woods_61.jpg","null","woods","L","non-repeat","null","158","stimuli/woods_61.jpg","","","","",""
"","","","","","image-keyboard-response","187","2.0.0","219481","pypx0kongsf","jaguar","604","stimuli/woods_61.jpg"," ","woods","L","repeat"," ","158","","","","","",""
"","","","","","image-keyboard-response","188","2.0.0","220491","pypx0kongsf","jaguar","null","stimuli/stream_39.jpg","null","stream","D","non-repeat","null","159","stimuli/stream_39.jpg","","","","",""
"","","","","","image-keyboard-response","189","2.0.0","221502","pypx0kongsf","jaguar","null","stimuli/playground_46.jpg","null","playground","E","non-repeat","null","160","stimuli/playground_46.jpg","","","","",""
"","","","","","image-keyboard-response","190","2.0.0","222511","pypx0kongsf","jaguar","null","stimuli/field_59.jpg","null","field","F","non-repeat","null","161","stimuli/field_59.jpg","","","","",""
"","","","","","image-keyboard-response","191","2.0.0","223520","pypx0kongsf","jaguar","null","stimuli/kitchen_62.jpg","null","kitchen","J","non-repeat","null","162","stimuli/kitchen_62.jpg","","","","",""
"","","","","","image-keyboard-response","192","2.0.0","224527","pypx0kongsf","jaguar","null","stimuli/bar_52.jpg","null","bar","K","non-repeat","null","163","stimuli/bar_52.jpg","","","","",""
"","","","","","image-keyboard-response","193","2.0.0","225539","pypx0kongsf","jaguar","null","stimuli/woods_61.jpg","null","woods","L","non-repeat","null","164","stimuli/woods_61.jpg","","","","",""
"","","","","","image-keyboard-response","194","2.0.0","226548","pypx0kongsf","jaguar","603","stimuli/woods_61.jpg"," ","woods","L","repeat"," ","164","","","","","",""
"","","","","","image-keyboard-response","195","2.0.0","227559","pypx0kongsf","jaguar","null","stimuli/desert_46.jpg","null","desert","A","non-repeat","null","165","stimuli/desert_46.jpg","","","","",""
"","","","","","image-keyboard-response","196","2.0.0","228567","pypx0kongsf","jaguar","null","stimuli/bathroom_22.jpg","null","bathroom","B","non-repeat","null","166","stimuli/bathroom_22.jpg","","","","",""
"","","","","","image-keyboard-response","197","2.0.0","229577","pypx0kongsf","jaguar","null","stimuli/coast_9.jpg","null","coast","C","non-repeat","null","167","stimuli/coast_9.jpg","","","","",""
"","","","","","image-keyboard-response","198","2.0.0","230587","pypx0kongsf","jaguar","607","stimuli/coast_9.jpg"," ","coast","C","repeat"," ","167","","","","","",""
"","","","","","image-keyboard-response","199","2.0.0","231598","pypx0kongsf","jaguar","null","stimuli/stream_39.jpg","null","stream","D","non-repeat","null","168","stimuli/stream_39.jpg","","","","",""
"","","","","","image-keyboard-response","200","2.0.0","232609","pypx0kongsf","jaguar","null","stimuli/playground_46.jpg","null","playground","E","non-repeat","null","169","stimuli/playground_46.jpg","","","","",""
"","","","","","image-keyboard-response","201","2.0.0","233619","pypx0kongsf","jaguar","null","stimuli/field_59.jpg","null","field","F","non-repeat","null","170","stimuli/field_59.jpg","","","","",""
"","","","","","image-keyboard-response","202","2.0.0","234627","pypx0kongsf","jaguar","null","stimuli/kitchen_62.jpg","null","kitchen","J","non-repeat","null","171","stimuli/kitchen_62.jpg","","","","",""
"","","","","","image-keyboard-response","203","2.0.0","235637","pypx0kongsf","jaguar","null","stimuli/bar_52.jpg","null","bar","K","non-repeat","null","172","stimuli/bar_52.jpg","","","","",""
"","","","","","image-keyboard-response","204","2.0.0","236645","pypx0kongsf","jaguar","null","stimuli/woods_61.jpg","null","woods","L","non-repeat","null","173","stimuli/woods_61.jpg","","","","",""
"","","","","","image-keyboard-response","205","2.0.0","237653","pypx0kongsf","jaguar","null","stimuli/bridge_25.jpg","null","bridge","G","non-repeat","null","174","stimuli/bridge_25.jpg","","","","",""
"","","","","","image-keyboard-response","206","2.0.0","238661","pypx0kongsf","jaguar","null","stimuli/gym_32.jpg","null","gym","H","non-repeat","null","175","stimuli/gym_32.jpg","","","","",""
"","","","","","image-keyboard-response","207","2.0.0","239669","pypx0kongsf","jaguar","null","stimuli/street_62.jpg","null","street","I","non-repeat","null","176","stimuli/street_62.jpg","","","","",""
"","","","","","image-keyboard-response","208","2.0.0","240677","pypx0kongsf","jaguar","null","stimuli/kitchen_62.jpg","null","kitchen","J","non-repeat","null","177","stimuli/kitchen_62.jpg","","","","",""
"","","","","","image-keyboard-response","209","2.0.0","241684","pypx0kongsf","jaguar","null","stimuli/bar_52.jpg","null","bar","K","non-repeat","null","178","stimuli/bar_52.jpg","","","","",""
"","","","","","image-keyboard-response","210","2.0.0","242696","pypx0kongsf","jaguar","null","stimuli/woods_61.jpg","null","woods","L","non-repeat","null","179","stimuli/woods_61.jpg","","","","",""
"","","","","","image-keyboard-response","211","2.0.0","243703","pypx0kongsf","jaguar","null","stimuli/stream_39.jpg","null","stream","D","non-repeat","null","180","stimuli/stream_39.jpg","","","","",""
"","","","","","image-keyboard-response","212","2.0.0","244711","pypx0kongsf","jaguar","null","stimuli/playground_46.jpg","null","playground","E","non-repeat","null","181","stimuli/playground_46.jpg","","","","",""
"","","","","","image-keyboard-response","213","2.0.0","245721","pypx0kongsf","jaguar","null","stimuli/field_59.jpg","null","field","F","non-repeat","null","182","stimuli/field_59.jpg","","","","",""
"","","","","","image-keyboard-response","214","2.0.0","246729","pypx0kongsf","jaguar","null","stimuli/bridge_25.jpg","null","bridge","G","non-repeat","null","183","stimuli/bridge_25.jpg","","","","",""
"","","","","","image-keyboard-response","215","2.0.0","247737","pypx0kongsf","jaguar","null","stimuli/gym_32.jpg","null","gym","H","non-repeat","null","184","stimuli/gym_32.jpg","","","","",""
"","","","","","image-keyboard-response","216","2.0.0","248746","pypx0kongsf","jaguar","null","stimuli/street_62.jpg","null","street","I","non-repeat","null","185","stimuli/street_62.jpg","","","","",""
"","","","","","image-keyboard-response","217","2.0.0","249757","pypx0kongsf","jaguar","null","stimuli/desert_46.jpg","null","desert","A","non-repeat","null","186","stimuli/desert_46.jpg","","","","",""
"","","","","","image-keyboard-response","218","2.0.0","250769","pypx0kongsf","jaguar","null","stimuli/bathroom_22.jpg","null","bathroom","B","non-repeat","null","187","stimuli/bathroom_22.jpg","","","","",""
"","","","","","image-keyboard-response","219","2.0.0","251779","pypx0kongsf","jaguar","null","stimuli/coast_9.jpg","null","coast","C","non-repeat","null","188","stimuli/coast_9.jpg","","","","",""
"","","","","","image-keyboard-response","220","2.0.0","252789","pypx0kongsf","jaguar","null","stimuli/stream_39.jpg","null","stream","D","non-repeat","null","189","stimuli/stream_39.jpg","","","","",""
"","","","","","image-keyboard-response","221","2.0.0","253796","pypx0kongsf","jaguar","null","stimuli/playground_46.jpg","null","playground","E","non-repeat","null","190","stimuli/playground_46.jpg","","","","",""
"","","","","","image-keyboard-response","222","2.0.0","254807","pypx0kongsf","jaguar","null","stimuli/field_59.jpg","null","field","F","non-repeat","null","191","stimuli/field_59.jpg","","","","",""
"","","","","","image-keyboard-response","223","2.0.0","255815","pypx0kongsf","jaguar","956","stimuli/field_59.jpg"," ","field","F","repeat"," ","191","","","","","",""
"","","","","","image-keyboard-response","224","2.0.0","256824","pypx0kongsf","jaguar","null","stimuli/kitchen_62.jpg","null","kitchen","J","non-repeat","null","192","stimuli/kitchen_62.jpg","","","","",""
"","","","","","image-keyboard-response","225","2.0.0","257833","pypx0kongsf","jaguar","null","stimuli/bar_52.jpg","null","bar","K","non-repeat","null","193","stimuli/bar_52.jpg","","","","",""
"","","","","","image-keyboard-response","226","2.0.0","258843","pypx0kongsf","jaguar","null","stimuli/woods_61.jpg","null","woods","L","non-repeat","null","194","stimuli/woods_61.jpg","","","","",""
"","","","","","image-keyboard-response","227","2.0.0","259854","pypx0kongsf","jaguar","null","stimuli/stream_39.jpg","null","stream","D","non-repeat","null","195","stimuli/stream_39.jpg","","","","",""
"","","","","","image-keyboard-response","228","2.0.0","260862","pypx0kongsf","jaguar","null","stimuli/playground_46.jpg","null","playground","E","non-repeat","null","196","stimuli/playground_46.jpg","","","","",""
"","","","","","image-keyboard-response","229","2.0.0","261873","pypx0kongsf","jaguar","null","stimuli/field_59.jpg","null","field","F","non-repeat","null","197","stimuli/field_59.jpg","","","","",""
"","","","","","image-keyboard-response","230","2.0.0","262881","pypx0kongsf","jaguar","null","stimuli/bridge_25.jpg","null","bridge","G","non-repeat","null","198","stimuli/bridge_25.jpg","","","","",""
"","","","","","image-keyboard-response","231","2.0.0","263890","pypx0kongsf","jaguar","671","stimuli/bridge_25.jpg"," ","bridge","G","repeat"," ","198","","","","","",""
"","","","","","image-keyboard-response","232","2.0.0","264897","pypx0kongsf","jaguar","null","stimuli/gym_32.jpg","null","gym","H","non-repeat","null","199","stimuli/gym_32.jpg","","","","",""
"","","","","","image-keyboard-response","233","2.0.0","265907","pypx0kongsf","jaguar","null","stimuli/street_62.jpg","null","street","I","non-repeat","null","200","stimuli/street_62.jpg","","","","",""
"","","","","","image-keyboard-response","234","2.0.0","266915","pypx0kongsf","jaguar","739","stimuli/street_62.jpg"," ","street","I","repeat"," ","200","","","","","",""
"","","","","","image-keyboard-response","235","2.0.0","267924","pypx0kongsf","jaguar","null","stimuli/kitchen_62.jpg","null","kitchen","J","non-repeat","null","201","stimuli/kitchen_62.jpg","","","","",""
"","","","","","image-keyboard-response","236","2.0.0","268934","pypx0kongsf","jaguar","null","stimuli/kitchen_62.jpg","null","kitchen","J","repeat"," ","201","","","","","",""
"","","","","","image-keyboard-response","237","2.0.0","269943","pypx0kongsf","jaguar","null","stimuli/bar_52.jpg","null","bar","K","non-repeat","null","202","stimuli/bar_52.jpg","","","","",""
"","","","","","image-keyboard-response","238","2.0.0","270952","pypx0kongsf","jaguar","null","stimuli/woods_61.jpg","null","woods","L","non-repeat","null","203","stimuli/woods_61.jpg","","","","",""
"","","","","","image-keyboard-response","239","2.0.0","271960","pypx0kongsf","jaguar","null","stimuli/desert_46.jpg","null","desert","A","non-repeat","null","204","stimuli/desert_46.jpg","","","","",""
"","","","","","image-keyboard-response","240","2.0.0","272969","pypx0kongsf","jaguar","634","stimuli/desert_46.jpg"," ","desert","A","repeat"," ","204","","","","","",""
"","","","","","image-keyboard-response","241","2.0.0","273979","pypx0kongsf","jaguar","null","stimuli/bathroom_22.jpg","null","bathroom","B","non-repeat","null","205","stimuli/bathroom_22.jpg","","","","",""
"","","","","","image-keyboard-response","242","2.0.0","274988","pypx0kongsf","jaguar","null","stimuli/coast_9.jpg","null","coast","C","non-repeat","null","206","stimuli/coast_9.jpg","","","","",""
"","","","","","image-keyboard-response","243","2.0.0","275997","pypx0kongsf","jaguar","null","stimuli/kitchen_62.jpg","null","kitchen","J","non-repeat","null","207","stimuli/kitchen_62.jpg","","","","",""
"","","","","","image-keyboard-response","244","2.0.0","277007","pypx0kongsf","jaguar","null","stimuli/bar_52.jpg","null","bar","K","non-repeat","null","208","stimuli/bar_52.jpg","","","","",""
"","","","","","image-keyboard-response","245","2.0.0","278017","pypx0kongsf","jaguar","null","stimuli/woods_61.jpg","null","woods","L","non-repeat","null","209","stimuli/woods_61.jpg","","","","",""
"","","","","","image-keyboard-response","246","2.0.0","279026","pypx0kongsf","jaguar","null","stimuli/stream_39.jpg","null","stream","D","non-repeat","null","210","stimuli/stream_39.jpg","","","","",""
"","","","","","image-keyboard-response","247","2.0.0","280032","pypx0kongsf","jaguar","null","stimuli/playground_46.jpg","null","playground","E","non-repeat","null","211","stimuli/playground_46.jpg","","","","",""
"","","","","","image-keyboard-response","248","2.0.0","281042","pypx0kongsf","jaguar","null","stimuli/field_59.jpg","null","field","F","non-repeat","null","212","stimuli/field_59.jpg","","","","",""
"","","","","","image-keyboard-response","249","2.0.0","282049","pypx0kongsf","jaguar","null","stimuli/bridge_25.jpg","null","bridge","G","non-repeat","null","213","stimuli/bridge_25.jpg","","","","",""
"","","","","","image-keyboard-response","250","2.0.0","283057","pypx0kongsf","jaguar","null","stimuli/gym_32.jpg","null","gym","H","non-repeat","null","214","stimuli/gym_32.jpg","","","","",""
"","","","","","image-keyboard-response","251","2.0.0","284067","pypx0kongsf","jaguar","null","stimuli/street_62.jpg","null","street","I","non-repeat","null","215","stimuli/street_62.jpg","","","","",""
"","","","","","image-keyboard-response","252","2.0.0","285079","pypx0kongsf","jaguar","null","stimuli/stream_39.jpg","null","stream","D","non-repeat","null","216","stimuli/stream_39.jpg","","","","",""
"","","","","","image-keyboard-response","253","2.0.0","286088","pypx0kongsf","jaguar","null","stimuli/playground_46.jpg","null","playground","E","non-repeat","null","217","stimuli/playground_46.jpg","","","","",""
"","","","","","image-keyboard-response","254","2.0.0","287099","pypx0kongsf","jaguar","null","stimuli/field_59.jpg","null","field","F","non-repeat","null","218","stimuli/field_59.jpg","","","","",""
"","","","","","image-keyboard-response","255","2.0.0","288107","pypx0kongsf","jaguar","null","stimuli/bridge_25.jpg","null","bridge","G","non-repeat","null","219","stimuli/bridge_25.jpg","","","","",""
"","","","","","image-keyboard-response","256","2.0.0","289115","pypx0kongsf","jaguar","null","stimuli/gym_32.jpg","null","gym","H","non-repeat","null","220","stimuli/gym_32.jpg","","","","",""
"","","","","","image-keyboard-response","257","2.0.0","290125","pypx0kongsf","jaguar","null","stimuli/street_62.jpg","null","street","I","non-repeat","null","221","stimuli/street_62.jpg","","","","",""
"","","","","","image-keyboard-response","258","2.0.0","291135","pypx0kongsf","jaguar","null","stimuli/desert_46.jpg","null","desert","A","non-repeat","null","222","stimuli/desert_46.jpg","","","","",""
"","","","","","image-keyboard-response","259","2.0.0","292144","pypx0kongsf","jaguar","681","stimuli/desert_46.jpg"," ","desert","A","repeat"," ","222","","","","","",""
"","","","","","image-keyboard-response","260","2.0.0","293152","pypx0kongsf","jaguar","null","stimuli/bathroom_22.jpg","null","bathroom","B","non-repeat","null","223","stimuli/bathroom_22.jpg","","","","",""
"","","","","","image-keyboard-response","261","2.0.0","294160","pypx0kongsf","jaguar","null","stimuli/coast_9.jpg","null","coast","C","non-repeat","null","224","stimuli/coast_9.jpg","","","","",""
"","","","","","image-keyboard-response","262","2.0.0","295168","pypx0kongsf","jaguar","null","stimuli/bridge_25.jpg","null","bridge","G","non-repeat","null","225","stimuli/bridge_25.jpg","","","","",""
"","","","","","image-keyboard-response","263","2.0.0","296177","pypx0kongsf","jaguar","null","stimuli/gym_32.jpg","null","gym","H","non-repeat","null","226","stimuli/gym_32.jpg","","","","",""
"","","","","","image-keyboard-response","264","2.0.0","297187","pypx0kongsf","jaguar","null","stimuli/street_62.jpg","null","street","I","non-repeat","null","227","stimuli/street_62.jpg","","","","",""
"","","","","","image-keyboard-response","265","2.0.0","298195","pypx0kongsf","jaguar","737","stimuli/street_62.jpg"," ","street","I","repeat"," ","227","","","","","",""
"","","","","","image-keyboard-response","266","2.0.0","299204","pypx0kongsf","jaguar","null","stimuli/stream_39.jpg","null","stream","D","non-repeat","null","228","stimuli/stream_39.jpg","","","","",""
"","","","","","image-keyboard-response","267","2.0.0","300213","pypx0kongsf","jaguar","null","stimuli/playground_46.jpg","null","playground","E","non-repeat","null","229","stimuli/playground_46.jpg","","","","",""
"","","","","","image-keyboard-response","268","2.0.0","301224","pypx0kongsf","jaguar","null","stimuli/field_59.jpg","null","field","F","non-repeat","null","230","stimuli/field_59.jpg","","","","",""
"","","","","","image-keyboard-response","269","2.0.0","302232","pypx0kongsf","jaguar","696","stimuli/field_59.jpg"," ","field","F","repeat"," ","230","","","","","",""
"","","","","","image-keyboard-response","270","2.0.0","303242","pypx0kongsf","jaguar","null","stimuli/bridge_25.jpg","null","bridge","G","non-repeat","null","231","stimuli/bridge_25.jpg","","","","",""
"","","","","","image-keyboard-response","271","2.0.0","304250","pypx0kongsf","jaguar","null","stimuli/gym_32.jpg","null","gym","H","non-repeat","null","232","stimuli/gym_32.jpg","","","","",""
"","","","","","image-keyboard-response","272","2.0.0","305262","pypx0kongsf","jaguar","null","stimuli/street_62.jpg","null","street","I","non-repeat","null","233","stimuli/street_62.jpg","","","","",""
"","","","","","image-keyboard-response","273","2.0.0","306269","pypx0kongsf","jaguar","null","stimuli/desert_46.jpg","null","desert","A","non-repeat","null","234","stimuli/desert_46.jpg","","","","",""
"","","","","","image-keyboard-response","274","2.0.0","307277","pypx0kongsf","jaguar","null","stimuli/bathroom_22.jpg","null","bathroom","B","non-repeat","null","235","stimuli/bathroom_22.jpg","","","","",""
"","","","","","image-keyboard-response","275","2.0.0","308286","pypx0kongsf","jaguar","null","stimuli/coast_9.jpg","null","coast","C","non-repeat","null","236","stimuli/coast_9.jpg","","","","",""
"","","","","","image-keyboard-response","276","2.0.0","309294","pypx0kongsf","jaguar","706","stimuli/coast_9.jpg"," ","coast","C","repeat"," ","236","","","","","",""
"","","","","","image-keyboard-response","277","2.0.0","310302","pypx0kongsf","jaguar","null","stimuli/kitchen_62.jpg","null","kitchen","J","non-repeat","null","237","stimuli/kitchen_62.jpg","","","","",""
"","","","","","image-keyboard-response","278","2.0.0","311311","pypx0kongsf","jaguar","null","stimuli/bar_52.jpg","null","bar","K","non-repeat","null","238","stimuli/bar_52.jpg","","","","",""
"","","","","","image-keyboard-response","279","2.0.0","312322","pypx0kongsf","jaguar","null","stimuli/woods_61.jpg","null","woods","L","non-repeat","null","239","stimuli/woods_61.jpg","","","","",""
"","","","","","image-keyboard-response","280","2.0.0","313332","pypx0kongsf","jaguar","null","stimuli/desert_46.jpg","null","desert","A","non-repeat","null","240","stimuli/desert_46.jpg","","","","",""
"","","","","","image-keyboard-response","281","2.0.0","314340","pypx0kongsf","jaguar","null","stimuli/bathroom_22.jpg","null","bathroom","B","non-repeat","null","241","stimuli/bathroom_22.jpg","","","","",""
"","","","","","image-keyboard-response","282","2.0.0","315348","pypx0kongsf","jaguar","null","stimuli/coast_9.jpg","null","coast","C","non-repeat","null","242","stimuli/coast_9.jpg","","","","",""
"","","","","","image-keyboard-response","283","2.0.0","316357","pypx0kongsf","jaguar","null","stimuli/kitchen_62.jpg","null","kitchen","J","non-repeat","null","243","stimuli/kitchen_62.jpg","","","","",""
"","","","","","image-keyboard-response","284","2.0.0","317366","pypx0kongsf","jaguar","555","stimuli/kitchen_62.jpg"," ","kitchen","J","repeat"," ","243","","","","","",""
"","","","","","image-keyboard-response","285","2.0.0","318373","pypx0kongsf","jaguar","null","stimuli/bar_52.jpg","null","bar","K","non-repeat","null","244","stimuli/bar_52.jpg","","","","",""
"","","","","","image-keyboard-response","286","2.0.0","319382","pypx0kongsf","jaguar","null","stimuli/woods_61.jpg","null","woods","L","non-repeat","null","245","stimuli/woods_61.jpg","","","","",""
"","","","","","image-keyboard-response","287","2.0.0","320392","pypx0kongsf","jaguar","null","stimuli/stream_39.jpg","null","stream","D","non-repeat","null","246","stimuli/stream_39.jpg","","","","",""
"","","","","","image-keyboard-response","288","2.0.0","321399","pypx0kongsf","jaguar","null","stimuli/playground_46.jpg","null","playground","E","non-repeat","null","247","stimuli/playground_46.jpg","","","","",""
"","","","","","image-keyboard-response","289","2.0.0","322407","pypx0kongsf","jaguar","null","stimuli/field_59.jpg","null","field","F","non-repeat","null","248","stimuli/field_59.jpg","","","","",""
"","","","","","image-keyboard-response","290","2.0.0","323418","pypx0kongsf","jaguar","null","stimuli/desert_46.jpg","null","desert","A","non-repeat","null","249","stimuli/desert_46.jpg","","","","",""
"","","","","","image-keyboard-response","291","2.0.0","324429","pypx0kongsf","jaguar","632","stimuli/bathroom_22.jpg"," ","bathroom","B","non-repeat","null","250","stimuli/bathroom_22.jpg","","","","",""
"","","","","","image-keyboard-response","292","2.0.0","325437","pypx0kongsf","jaguar","null","stimuli/coast_9.jpg","null","coast","C","non-repeat","null","251","stimuli/coast_9.jpg","","","","",""
"","","","","","image-keyboard-response","293","2.0.0","326446","pypx0kongsf","jaguar","null","stimuli/stream_39.jpg","null","stream","D","non-repeat","null","252","stimuli/stream_39.jpg","","","","",""
"","","","","","image-keyboard-response","294","2.0.0","327457","pypx0kongsf","jaguar","null","stimuli/playground_46.jpg","null","playground","E","non-repeat","null","253","stimuli/playground_46.jpg","","","","",""
"","","","","","image-keyboard-response","295","2.0.0","328464","pypx0kongsf","jaguar","null","stimuli/field_59.jpg","null","field","F","non-repeat","null","254","stimuli/field_59.jpg","","","","",""
"","","","","","image-keyboard-response","296","2.0.0","329472","pypx0kongsf","jaguar","null","stimuli/desert_46.jpg","null","desert","A","non-repeat","null","255","stimuli/desert_46.jpg","","","","",""
"","","","","","image-keyboard-response","297","2.0.0","330480","pypx0kongsf","jaguar","null","stimuli/bathroom_22.jpg","null","bathroom","B","non-repeat","null","256","stimuli/bathroom_22.jpg","","","","",""
"","","","","","image-keyboard-response","298","2.0.0","331487","pypx0kongsf","jaguar","null","stimuli/coast_9.jpg","null","coast","C","non-repeat","null","257","stimuli/coast_9.jpg","","","","",""
"","","","","","image-keyboard-response","299","2.0.0","332496","pypx0kongsf","jaguar","null","stimuli/kitchen_62.jpg","null","kitchen","J","non-repeat","null","258","stimuli/kitchen_62.jpg","","","","",""
"","","","","","image-keyboard-response","300","2.0.0","333506","pypx0kongsf","jaguar","361","stimuli/kitchen_62.jpg"," ","kitchen","J","repeat"," ","258","","","","","",""
"","","","","","image-keyboard-response","301","2.0.0","334515","pypx0kongsf","jaguar","null","stimuli/bar_52.jpg","null","bar","K","non-repeat","null","259","stimuli/bar_52.jpg","","","","",""
"","","","","","image-keyboard-response","302","2.0.0","335524","pypx0kongsf","jaguar","null","stimuli/woods_61.jpg","null","woods","L","non-repeat","null","260","stimuli/woods_61.jpg","","","","",""
"","","","","","image-keyboard-response","303","2.0.0","336533","pypx0kongsf","jaguar","561","stimuli/woods_61.jpg"," ","woods","L","repeat"," ","260","","","","","",""
"","","","","","image-keyboard-response","304","2.0.0","337542","pypx0kongsf","jaguar","null","stimuli/bridge_25.jpg","null","bridge","G","non-repeat","null","261","stimuli/bridge_25.jpg","","","","",""
"","","","","","image-keyboard-response","305","2.0.0","338553","pypx0kongsf","jaguar","null","stimuli/gym_32.jpg","null","gym","H","non-repeat","null","262","stimuli/gym_32.jpg","","","","",""
"","","","","","image-keyboard-response","306","2.0.0","339562","pypx0kongsf","jaguar","null","stimuli/street_62.jpg","null","street","I","non-repeat","null","263","stimuli/street_62.jpg","","","","",""
"","","","","","image-keyboard-response","307","2.0.0","340571","pypx0kongsf","jaguar","null","stimuli/stream_39.jpg","null","stream","D","non-repeat","null","264","stimuli/stream_39.jpg","","","","",""
"","","","","","image-keyboard-response","308","2.0.0","341581","pypx0kongsf","jaguar","null","stimuli/playground_46.jpg","null","playground","E","non-repeat","null","265","stimuli/playground_46.jpg","","","","",""
"","","","","","image-keyboard-response","309","2.0.0","342589","pypx0kongsf","jaguar","null","stimuli/field_59.jpg","null","field","F","non-repeat","null","266","stimuli/field_59.jpg","","","","",""
"","","","","","image-keyboard-response","310","2.0.0","343600","pypx0kongsf","jaguar","null","stimuli/desert_46.jpg","null","desert","A","non-repeat","null","267","stimuli/desert_46.jpg","","","","",""
"","","","","","image-keyboard-response","311","2.0.0","344607","pypx0kongsf","jaguar","null","stimuli/bathroom_22.jpg","null","bathroom","B","non-repeat","null","268","stimuli/bathroom_22.jpg","","","","",""
"","","","","","image-keyboard-response","312","2.0.0","345616","pypx0kongsf","jaguar","null","stimuli/coast_9.jpg","null","coast","C","non-repeat","null","269","stimuli/coast_9.jpg","","","","",""
"","","","","","image-keyboard-response","313","2.0.0","346623","pypx0kongsf","jaguar","null","stimuli/bridge_25.jpg","null","bridge","G","non-repeat","null","270","stimuli/bridge_25.jpg","","","","",""
"","","","","","image-keyboard-response","314","2.0.0","347632","pypx0kongsf","jaguar","894","stimuli/bridge_25.jpg"," ","bridge","G","repeat"," ","270","","","","","",""
"","","","","","image-keyboard-response","315","2.0.0","348640","pypx0kongsf","jaguar","null","stimuli/gym_32.jpg","null","gym","H","non-repeat","null","271","stimuli/gym_32.jpg","","","","",""
"","","","","","image-keyboard-response","316","2.0.0","349650","pypx0kongsf","jaguar","null","stimuli/street_62.jpg","null","street","I","non-repeat","null","272","stimuli/street_62.jpg","","","","",""
"","","","","","image-keyboard-response","317","2.0.0","350659","pypx0kongsf","jaguar","null","stimuli/desert_46.jpg","null","desert","A","non-repeat","null","273","stimuli/desert_46.jpg","","","","",""
"","","","","","image-keyboard-response","318","2.0.0","351668","pypx0kongsf","jaguar","null","stimuli/bathroom_22.jpg","null","bathroom","B","non-repeat","null","274","stimuli/bathroom_22.jpg","","","","",""
"","","","","","image-keyboard-response","319","2.0.0","352677","pypx0kongsf","jaguar","null","stimuli/coast_9.jpg","null","coast","C","non-repeat","null","275","stimuli/coast_9.jpg","","","","",""
"","","","","","image-keyboard-response","320","2.0.0","353684","pypx0kongsf","jaguar","null","stimuli/kitchen_62.jpg","null","kitchen","J","non-repeat","null","276","stimuli/kitchen_62.jpg","","","","",""
"","","","","","image-keyboard-response","321","2.0.0","354692","pypx0kongsf","jaguar","null","stimuli/bar_52.jpg","null","bar","K","non-repeat","null","277","stimuli/bar_52.jpg","","","","",""
"","","","","","image-keyboard-response","322","2.0.0","355700","pypx0kongsf","jaguar","null","stimuli/woods_61.jpg","null","woods","L","non-repeat","null","278","stimuli/woods_61.jpg","","","","",""
"","","","","","image-keyboard-response","323","2.0.0","356709","pypx0kongsf","jaguar","null","stimuli/bridge_25.jpg","null","bridge","G","non-repeat","null","279","stimuli/bridge_25.jpg","","","","",""
"","","","","","image-keyboard-response","324","2.0.0","357720","pypx0kongsf","jaguar","null","stimuli/gym_32.jpg","null","gym","H","non-repeat","null","280","stimuli/gym_32.jpg","","","","",""
"","","","","","image-keyboard-response","325","2.0.0","358727","pypx0kongsf","jaguar","null","stimuli/street_62.jpg","null","street","I","non-repeat","null","281","stimuli/street_62.jpg","","","","",""
"","","","","","image-keyboard-response","326","2.0.0","359736","pypx0kongsf","jaguar","null","stimuli/kitchen_62.jpg","null","kitchen","J","non-repeat","null","282","stimuli/kitchen_62.jpg","","","","",""
"","","","","","image-keyboard-response","327","2.0.0","360745","pypx0kongsf","jaguar","null","stimuli/bar_52.jpg","null","bar","K","non-repeat","null","283","stimuli/bar_52.jpg","","","","",""
"","","","","","image-keyboard-response","328","2.0.0","361757","pypx0kongsf","jaguar","null","stimuli/woods_61.jpg","null","woods","L","non-repeat","null","284","stimuli/woods_61.jpg","","","","",""
"","","","","","image-keyboard-response","329","2.0.0","362766","pypx0kongsf","jaguar","null","stimuli/desert_46.jpg","null","desert","A","non-repeat","null","285","stimuli/desert_46.jpg","","","","",""
"","","","","","image-keyboard-response","330","2.0.0","363776","pypx0kongsf","jaguar","null","stimuli/bathroom_22.jpg","null","bathroom","B","non-repeat","null","286","stimuli/bathroom_22.jpg","","","","",""
"","","","","","image-keyboard-response","331","2.0.0","364784","pypx0kongsf","jaguar","null","stimuli/coast_9.jpg","null","coast","C","non-repeat","null","287","stimuli/coast_9.jpg","","","","",""
"","","","","","image-keyboard-response","332","2.0.0","365794","pypx0kongsf","jaguar","null","stimuli/stream_39.jpg","null","stream","D","non-repeat","null","288","stimuli/stream_39.jpg","","","","",""
"","","","","","image-keyboard-response","333","2.0.0","366803","pypx0kongsf","jaguar","533","stimuli/stream_39.jpg"," ","stream","D","repeat"," ","288","","","","","",""
"","","","","","image-keyboard-response","334","2.0.0","367812","pypx0kongsf","jaguar","null","stimuli/playground_46.jpg","null","playground","E","non-repeat","null","289","stimuli/playground_46.jpg","","","","",""
"","","","","","image-keyboard-response","335","2.0.0","368821","pypx0kongsf","jaguar","null","stimuli/field_59.jpg","null","field","F","non-repeat","null","290","stimuli/field_59.jpg","","","","",""
"","","","","","image-keyboard-response","336","2.0.0","369831","pypx0kongsf","jaguar","700","stimuli/field_59.jpg"," ","field","F","repeat"," ","290","","","","","",""
"","","","","","image-keyboard-response","337","2.0.0","370840","pypx0kongsf","jaguar","null","stimuli/desert_46.jpg","null","desert","A","non-repeat","null","291","stimuli/desert_46.jpg","","","","",""
"","","","","","image-keyboard-response","338","2.0.0","371850","pypx0kongsf","jaguar","645","stimuli/desert_46.jpg"," ","desert","A","repeat"," ","291","","","","","",""
"","","","","","image-keyboard-response","339","2.0.0","372859","pypx0kongsf","jaguar","null","stimuli/bathroom_22.jpg","null","bathroom","B","non-repeat","null","292","stimuli/bathroom_22.jpg","","","","",""
"","","","","","image-keyboard-response","340","2.0.0","373867","pypx0kongsf","jaguar","null","stimuli/coast_9.jpg","null","coast","C","non-repeat","null","293","stimuli/coast_9.jpg","","","","",""
"","","","","","image-keyboard-response","341","2.0.0","374875","pypx0kongsf","jaguar","null","stimuli/bridge_25.jpg","null","bridge","G","non-repeat","null","294","stimuli/bridge_25.jpg","","","","",""
"","","","","","image-keyboard-response","342","2.0.0","375884","pypx0kongsf","jaguar","null","stimuli/bridge_25.jpg","null","bridge","G","repeat"," ","294","","","","","",""
"","","","","","image-keyboard-response","343","2.0.0","376892","pypx0kongsf","jaguar","null","stimuli/gym_32.jpg","null","gym","H","non-repeat","null","295","stimuli/gym_32.jpg","","","","",""
"","","","","","image-keyboard-response","344","2.0.0","377901","pypx0kongsf","jaguar","null","stimuli/street_62.jpg","null","street","I","non-repeat","null","296","stimuli/street_62.jpg","","","","",""
"","","","","","image-keyboard-response","345","2.0.0","378912","pypx0kongsf","jaguar","null","stimuli/stream_39.jpg","null","stream","D","non-repeat","null","297","stimuli/stream_39.jpg","","","","",""
"","","","","","image-keyboard-response","346","2.0.0","379921","pypx0kongsf","jaguar","null","stimuli/playground_46.jpg","null","playground","E","non-repeat","null","298","stimuli/playground_46.jpg","","","","",""
"","","","","","image-keyboard-response","347","2.0.0","380929","pypx0kongsf","jaguar","null","stimuli/field_59.jpg","null","field","F","non-repeat","null","299","stimuli/field_59.jpg","","","","",""
"","","","","","image-keyboard-response","348","2.0.0","381940","pypx0kongsf","jaguar","null","stimuli/bridge_25.jpg","null","bridge","G","non-repeat","null","300","stimuli/bridge_25.jpg","","","","",""
"","","","","","image-keyboard-response","349","2.0.0","382947","pypx0kongsf","jaguar","null","stimuli/gym_32.jpg","null","gym","H","non-repeat","null","301","stimuli/gym_32.jpg","","","","",""
"","","","","","image-keyboard-response","350","2.0.0","383955","pypx0kongsf","jaguar","null","stimuli/street_62.jpg","null","street","I","non-repeat","null","302","stimuli/street_62.jpg","","","","",""
"","","","","","image-keyboard-response","351","2.0.0","384964","pypx0kongsf","jaguar","null","stimuli/kitchen_62.jpg","null","kitchen","J","non-repeat","null","303","stimuli/kitchen_62.jpg","","","","",""
"","","","","","image-keyboard-response","352","2.0.0","385973","pypx0kongsf","jaguar","null","stimuli/bar_52.jpg","null","bar","K","non-repeat","null","304","stimuli/bar_52.jpg","","","","",""
"","","","","","image-keyboard-response","353","2.0.0","386985","pypx0kongsf","jaguar","null","stimuli/woods_61.jpg","null","woods","L","non-repeat","null","305","stimuli/woods_61.jpg","","","","",""
"","","","","","image-keyboard-response","354","2.0.0","387996","pypx0kongsf","jaguar","null","stimuli/desert_46.jpg","null","desert","A","non-repeat","null","306","stimuli/desert_46.jpg","","","","",""
"","","","","","image-keyboard-response","355","2.0.0","389006","pypx0kongsf","jaguar","null","stimuli/bathroom_22.jpg","null","bathroom","B","non-repeat","null","307","stimuli/bathroom_22.jpg","","","","",""
"","","","","","image-keyboard-response","356","2.0.0","390016","pypx0kongsf","jaguar","null","stimuli/coast_9.jpg","null","coast","C","non-repeat","null","308","stimuli/coast_9.jpg","","","","",""
"","","","","","image-keyboard-response","357","2.0.0","391028","pypx0kongsf","jaguar","null","stimuli/stream_39.jpg","null","stream","D","non-repeat","null","309","stimuli/stream_39.jpg","","","","",""
"","","","","","image-keyboard-response","358","2.0.0","392038","pypx0kongsf","jaguar","null","stimuli/playground_46.jpg","null","playground","E","non-repeat","null","310","stimuli/playground_46.jpg","","","","",""
"","","","","","image-keyboard-response","359","2.0.0","393048","pypx0kongsf","jaguar","null","stimuli/field_59.jpg","null","field","F","non-repeat","null","311","stimuli/field_59.jpg","","","","",""
"","","","","","image-keyboard-response","360","2.0.0","394061","pypx0kongsf","jaguar","null","stimuli/kitchen_62.jpg","null","kitchen","J","non-repeat","null","312","stimuli/kitchen_62.jpg","","","","",""
"","","","","","image-keyboard-response","361","2.0.0","395071","pypx0kongsf","jaguar","null","stimuli/bar_52.jpg","null","bar","K","non-repeat","null","313","stimuli/bar_52.jpg","","","","",""
"","","","","","image-keyboard-response","362","2.0.0","396082","pypx0kongsf","jaguar","null","stimuli/woods_61.jpg","null","woods","L","non-repeat","null","314","stimuli/woods_61.jpg","","","","",""
"","","","","","image-keyboard-response","363","2.0.0","397092","pypx0kongsf","jaguar","null","stimuli/stream_39.jpg","null","stream","D","non-repeat","null","315","stimuli/stream_39.jpg","","","","",""
"","","","","","image-keyboard-response","364","2.0.0","398102","pypx0kongsf","jaguar","null","stimuli/playground_46.jpg","null","playground","E","non-repeat","null","316","stimuli/playground_46.jpg","","","","",""
"","","","","","image-keyboard-response","365","2.0.0","399112","pypx0kongsf","jaguar","null","stimuli/field_59.jpg","null","field","F","non-repeat","null","317","stimuli/field_59.jpg","","","","",""
"","","","","","image-keyboard-response","366","2.0.0","400121","pypx0kongsf","jaguar","null","stimuli/desert_46.jpg","null","desert","A","non-repeat","null","318","stimuli/desert_46.jpg","","","","",""
"","","","","","image-keyboard-response","367","2.0.0","401131","pypx0kongsf","jaguar","682","stimuli/desert_46.jpg"," ","desert","A","repeat"," ","318","","","","","",""
"","","","","","image-keyboard-response","368","2.0.0","402141","pypx0kongsf","jaguar","null","stimuli/bathroom_22.jpg","null","bathroom","B","non-repeat","null","319","stimuli/bathroom_22.jpg","","","","",""
"","","","","","image-keyboard-response","369","2.0.0","403150","pypx0kongsf","jaguar","null","stimuli/coast_9.jpg","null","coast","C","non-repeat","null","320","stimuli/coast_9.jpg","","","","",""
"","","","","","image-keyboard-response","370","2.0.0","404162","pypx0kongsf","jaguar","null","stimuli/kitchen_62.jpg","null","kitchen","J","non-repeat","null","321","stimuli/kitchen_62.jpg","","","","",""
"","","","","","image-keyboard-response","371","2.0.0","405170","pypx0kongsf","jaguar","null","stimuli/bar_52.jpg","null","bar","K","non-repeat","null","322","stimuli/bar_52.jpg","","","","",""
"","","","","","image-keyboard-response","372","2.0.0","406180","pypx0kongsf","jaguar","null","stimuli/woods_61.jpg","null","woods","L","non-repeat","null","323","stimuli/woods_61.jpg","","","","",""
"","","","","","image-keyboard-response","373","2.0.0","407190","pypx0kongsf","jaguar","484","stimuli/woods_61.jpg"," ","woods","L","repeat"," ","323","","","","","",""
"","","","","","image-keyboard-response","374","2.0.0","408200","pypx0kongsf","jaguar","null","stimuli/stream_39.jpg","null","stream","D","non-repeat","null","324","stimuli/stream_39.jpg","","","","",""
"","","","","","image-keyboard-response","375","2.0.0","409211","pypx0kongsf","jaguar","null","stimuli/playground_46.jpg","null","playground","E","non-repeat","null","325","stimuli/playground_46.jpg","","","","",""
"","","","","","image-keyboard-response","376","2.0.0","410222","pypx0kongsf","jaguar","null","stimuli/field_59.jpg","null","field","F","non-repeat","null","326","stimuli/field_59.jpg","","","","",""
"","","","","","image-keyboard-response","377","2.0.0","411231","pypx0kongsf","jaguar","null","stimuli/desert_46.jpg","null","desert","A","non-repeat","null","327","stimuli/desert_46.jpg","","","","",""
"","","","","","image-keyboard-response","378","2.0.0","412241","pypx0kongsf","jaguar","575","stimuli/desert_46.jpg"," ","desert","A","repeat"," ","327","","","","","",""
"","","","","","image-keyboard-response","379","2.0.0","413249","pypx0kongsf","jaguar","null","stimuli/bathroom_22.jpg","null","bathroom","B","non-repeat","null","328","stimuli/bathroom_22.jpg","","","","",""
"","","","","","image-keyboard-response","380","2.0.0","414261","pypx0kongsf","jaguar","null","stimuli/coast_9.jpg","null","coast","C","non-repeat","null","329","stimuli/coast_9.jpg","","","","",""
"","","","","","image-keyboard-response","381","2.0.0","415271","pypx0kongsf","jaguar","664","stimuli/coast_9.jpg"," ","coast","C","repeat"," ","329","","","","","",""
"","","","","","image-keyboard-response","382","2.0.0","416281","pypx0kongsf","jaguar","null","stimuli/kitchen_62.jpg","null","kitchen","J","non-repeat","null","330","stimuli/kitchen_62.jpg","","","","",""
"","","","","","image-keyboard-response","383","2.0.0","417289","pypx0kongsf","jaguar","null","stimuli/bar_52.jpg","null","bar","K","non-repeat","null","331","stimuli/bar_52.jpg","","","","",""
"","","","","","image-keyboard-response","384","2.0.0","418301","pypx0kongsf","jaguar","null","stimuli/woods_61.jpg","null","woods","L","non-repeat","null","332","stimuli/woods_61.jpg","","","","",""
"","","","","","image-keyboard-response","385","2.0.0","419309","pypx0kongsf","jaguar","null","stimuli/stream_39.jpg","null","stream","D","non-repeat","null","333","stimuli/stream_39.jpg","","","","",""
"","","","","","image-keyboard-response","386","2.0.0","420318","pypx0kongsf","jaguar","null","stimuli/playground_46.jpg","null","playground","E","non-repeat","null","334","stimuli/playground_46.jpg","","","","",""
"","","","","","image-keyboard-response","387","2.0.0","421328","pypx0kongsf","jaguar","null","stimuli/field_59.jpg","null","field","F","non-repeat","null","335","stimuli/field_59.jpg","","","","",""
"","","","","","image-keyboard-response","388","2.0.0","422336","pypx0kongsf","jaguar","null","stimuli/kitchen_62.jpg","null","kitchen","J","non-repeat","null","336","stimuli/kitchen_62.jpg","","","","",""
"","","","","","image-keyboard-response","389","2.0.0","423345","pypx0kongsf","jaguar","null","stimuli/bar_52.jpg","null","bar","K","non-repeat","null","337","stimuli/bar_52.jpg","","","","",""
"","","","","","image-keyboard-response","390","2.0.0","424353","pypx0kongsf","jaguar","null","stimuli/woods_61.jpg","null","woods","L","non-repeat","null","338","stimuli/woods_61.jpg","","","","",""
"","","","","","image-keyboard-response","391","2.0.0","425361","pypx0kongsf","jaguar","515","stimuli/woods_61.jpg"," ","woods","L","repeat"," ","338","","","","","",""
"","","","","","image-keyboard-response","392","2.0.0","426370","pypx0kongsf","jaguar","null","stimuli/bridge_25.jpg","null","bridge","G","non-repeat","null","339","stimuli/bridge_25.jpg","","","","",""
"","","","","","image-keyboard-response","393","2.0.0","427379","pypx0kongsf","jaguar","null","stimuli/gym_32.jpg","null","gym","H","non-repeat","null","340","stimuli/gym_32.jpg","","","","",""
"","","","","","image-keyboard-response","394","2.0.0","428387","pypx0kongsf","jaguar","null","stimuli/street_62.jpg","null","street","I","non-repeat","null","341","stimuli/street_62.jpg","","","","",""
"","","","","","image-keyboard-response","395","2.0.0","429398","pypx0kongsf","jaguar","null","stimuli/stream_39.jpg","null","stream","D","non-repeat","null","342","stimuli/stream_39.jpg","","","","",""
"","","","","","image-keyboard-response","396","2.0.0","430407","pypx0kongsf","jaguar","null","stimuli/playground_46.jpg","null","playground","E","non-repeat","null","343","stimuli/playground_46.jpg","","","","",""
"","","","","","image-keyboard-response","397","2.0.0","431417","pypx0kongsf","jaguar","null","stimuli/field_59.jpg","null","field","F","non-repeat","null","344","stimuli/field_59.jpg","","","","",""
"","","","","","image-keyboard-response","398","2.0.0","432426","pypx0kongsf","jaguar","null","stimuli/kitchen_62.jpg","null","kitchen","J","non-repeat","null","345","stimuli/kitchen_62.jpg","","","","",""
"","","","","","image-keyboard-response","399","2.0.0","433436","pypx0kongsf","jaguar","729","stimuli/kitchen_62.jpg"," ","kitchen","J","repeat"," ","345","","","","","",""
"","","","","","image-keyboard-response","400","2.0.0","434444","pypx0kongsf","jaguar","null","stimuli/bar_52.jpg","null","bar","K","non-repeat","null","346","stimuli/bar_52.jpg","","","","",""
"","","","","","image-keyboard-response","401","2.0.0","435453","pypx0kongsf","jaguar","null","stimuli/woods_61.jpg","null","woods","L","non-repeat","null","347","stimuli/woods_61.jpg","","","","",""
"","","","","","image-keyboard-response","402","2.0.0","436461","pypx0kongsf","jaguar","null","stimuli/stream_39.jpg","null","stream","D","non-repeat","null","348","stimuli/stream_39.jpg","","","","",""
"","","","","","image-keyboard-response","403","2.0.0","437471","pypx0kongsf","jaguar","527","stimuli/stream_39.jpg"," ","stream","D","repeat"," ","348","","","","","",""
"","","","","","image-keyboard-response","404","2.0.0","438480","pypx0kongsf","jaguar","null","stimuli/playground_46.jpg","null","playground","E","non-repeat","null","349","stimuli/playground_46.jpg","","","","",""
"","","","","","image-keyboard-response","405","2.0.0","439490","pypx0kongsf","jaguar","null","stimuli/field_59.jpg","null","field","F","non-repeat","null","350","stimuli/field_59.jpg","","","","",""
"","","","","","image-keyboard-response","406","2.0.0","440499","pypx0kongsf","jaguar","null","stimuli/kitchen_62.jpg","null","kitchen","J","non-repeat","null","351","stimuli/kitchen_62.jpg","","","","",""
"","","","","","image-keyboard-response","407","2.0.0","441508","pypx0kongsf","jaguar","null","stimuli/bar_52.jpg","null","bar","K","non-repeat","null","352","stimuli/bar_52.jpg","","","","",""
"","","","","","image-keyboard-response","408","2.0.0","442518","pypx0kongsf","jaguar","null","stimuli/woods_61.jpg","null","woods","L","non-repeat","null","353","stimuli/woods_61.jpg","","","","",""
"","","","","","image-keyboard-response","409","2.0.0","443529","pypx0kongsf","jaguar","null","stimuli/stream_39.jpg","null","stream","D","non-repeat","null","354","stimuli/stream_39.jpg","","","","",""
"","","","","","image-keyboard-response","410","2.0.0","444537","pypx0kongsf","jaguar","436","stimuli/stream_39.jpg"," ","stream","D","repeat"," ","354","","","","","",""
"","","","","","image-keyboard-response","411","2.0.0","445546","pypx0kongsf","jaguar","null","stimuli/playground_46.jpg","null","playground","E","non-repeat","null","355","stimuli/playground_46.jpg","","","","",""
"","","","","","image-keyboard-response","412","2.0.0","446557","pypx0kongsf","jaguar","null","stimuli/field_59.jpg","null","field","F","non-repeat","null","356","stimuli/field_59.jpg","","","","",""
"","","","","","image-keyboard-response","413","2.0.0","447568","pypx0kongsf","jaguar","null","stimuli/desert_46.jpg","null","desert","A","non-repeat","null","357","stimuli/desert_46.jpg","","","","",""
"","","","","","image-keyboard-response","414","2.0.0","448577","pypx0kongsf","jaguar","null","stimuli/bathroom_22.jpg","null","bathroom","B","non-repeat","null","358","stimuli/bathroom_22.jpg","","","","",""
"","","","","","image-keyboard-response","415","2.0.0","449585","pypx0kongsf","jaguar","null","stimuli/coast_9.jpg","null","coast","C","non-repeat","null","359","stimuli/coast_9.jpg","","","","",""
"","","","","","image-keyboard-response","416","2.0.0","450592","pypx0kongsf","jaguar","704","stimuli/coast_9.jpg"," ","coast","C","repeat"," ","359","","","","","",""
"","","","","","image-keyboard-response","417","2.0.0","451601","pypx0kongsf","jaguar","null","stimuli/stream_39.jpg","null","stream","D","non-repeat","null","360","stimuli/stream_39.jpg","","","","",""
"","","","","","image-keyboard-response","418","2.0.0","452609","pypx0kongsf","jaguar","null","stimuli/playground_46.jpg","null","playground","E","non-repeat","null","361","stimuli/playground_46.jpg","","","","",""
"","","","","","image-keyboard-response","419","2.0.0","453619","pypx0kongsf","jaguar","null","stimuli/field_59.jpg","null","field","F","non-repeat","null","362","stimuli/field_59.jpg","","","","",""
"","","","","","image-keyboard-response","420","2.0.0","454626","pypx0kongsf","jaguar","null","stimuli/kitchen_62.jpg","null","kitchen","J","non-repeat","null","363","stimuli/kitchen_62.jpg","","","","",""
"","","","","","image-keyboard-response","421","2.0.0","455635","pypx0kongsf","jaguar","null","stimuli/bar_52.jpg","null","bar","K","non-repeat","null","364","stimuli/bar_52.jpg","","","","",""
"","","","","","image-keyboard-response","422","2.0.0","456645","pypx0kongsf","jaguar","null","stimuli/woods_61.jpg","null","woods","L","non-repeat","null","365","stimuli/woods_61.jpg","","","","",""
"","","","","","image-keyboard-response","423","2.0.0","457653","pypx0kongsf","jaguar","null","stimuli/bridge_25.jpg","null","bridge","G","non-repeat","null","366","stimuli/bridge_25.jpg","","","","",""
"","","","","","image-keyboard-response","424","2.0.0","458664","pypx0kongsf","jaguar","null","stimuli/gym_32.jpg","null","gym","H","non-repeat","null","367","stimuli/gym_32.jpg","","","","",""
"","","","","","image-keyboard-response","425","2.0.0","459672","pypx0kongsf","jaguar","null","stimuli/street_62.jpg","null","street","I","non-repeat","null","368","stimuli/street_62.jpg","","","","",""
"","","","","","image-keyboard-response","426","2.0.0","460680","pypx0kongsf","jaguar","null","stimuli/stream_39.jpg","null","stream","D","non-repeat","null","369","stimuli/stream_39.jpg","","","","",""
"","","","","","image-keyboard-response","427","2.0.0","461690","pypx0kongsf","jaguar","null","stimuli/playground_46.jpg","null","playground","E","non-repeat","null","370","stimuli/playground_46.jpg","","","","",""
"","","","","","image-keyboard-response","428","2.0.0","462698","pypx0kongsf","jaguar","null","stimuli/field_59.jpg","null","field","F","non-repeat","null","371","stimuli/field_59.jpg","","","","",""
"","","","","","image-keyboard-response","429","2.0.0","463706","pypx0kongsf","jaguar","null","stimuli/bridge_25.jpg","null","bridge","G","non-repeat","null","372","stimuli/bridge_25.jpg","","","","",""
"","","","","","image-keyboard-response","430","2.0.0","464714","pypx0kongsf","jaguar","null","stimuli/gym_32.jpg","null","gym","H","non-repeat","null","373","stimuli/gym_32.jpg","","","","",""
"","","","","","image-keyboard-response","431","2.0.0","465724","pypx0kongsf","jaguar","null","stimuli/street_62.jpg","null","street","I","non-repeat","null","374","stimuli/street_62.jpg","","","","",""
"","","","","","image-keyboard-response","432","2.0.0","466735","pypx0kongsf","jaguar","741","stimuli/street_62.jpg"," ","street","I","repeat"," ","374","","","","","",""
"","","","","","image-keyboard-response","433","2.0.0","467743","pypx0kongsf","jaguar","null","stimuli/desert_46.jpg","null","desert","A","non-repeat","null","375","stimuli/desert_46.jpg","","","","",""
"","","","","","image-keyboard-response","434","2.0.0","468753","pypx0kongsf","jaguar","null","stimuli/bathroom_22.jpg","null","bathroom","B","non-repeat","null","376","stimuli/bathroom_22.jpg","","","","",""
"","","","","","image-keyboard-response","435","2.0.0","469762","pypx0kongsf","jaguar","null","stimuli/coast_9.jpg","null","coast","C","non-repeat","null","377","stimuli/coast_9.jpg","","","","",""
"","","","","","image-keyboard-response","436","2.0.0","470771","pypx0kongsf","jaguar","null","stimuli/bridge_25.jpg","null","bridge","G","non-repeat","null","378","stimuli/bridge_25.jpg","","","","",""
"","","","","","image-keyboard-response","437","2.0.0","471779","pypx0kongsf","jaguar","null","stimuli/gym_32.jpg","null","gym","H","non-repeat","null","379","stimuli/gym_32.jpg","","","","",""
"","","","","","image-keyboard-response","438","2.0.0","472787","pypx0kongsf","jaguar","null","stimuli/street_62.jpg","null","street","I","non-repeat","null","380","stimuli/street_62.jpg","","","","",""
"","","","","","image-keyboard-response","439","2.0.0","473796","pypx0kongsf","jaguar","null","stimuli/kitchen_62.jpg","null","kitchen","J","non-repeat","null","381","stimuli/kitchen_62.jpg","","","","",""
"","","","","","image-keyboard-response","440","2.0.0","474804","pypx0kongsf","jaguar","null","stimuli/bar_52.jpg","null","bar","K","non-repeat","null","382","stimuli/bar_52.jpg","","","","",""
"","","","","","image-keyboard-response","441","2.0.0","475812","pypx0kongsf","jaguar","null","stimuli/woods_61.jpg","null","woods","L","non-repeat","null","383","stimuli/woods_61.jpg","","","","",""
"","","","","","image-keyboard-response","442","2.0.0","476820","pypx0kongsf","jaguar","null","stimuli/stream_39.jpg","null","stream","D","non-repeat","null","384","stimuli/stream_39.jpg","","","","",""
"","","","","","image-keyboard-response","443","2.0.0","477831","pypx0kongsf","jaguar","null","stimuli/playground_46.jpg","null","playground","E","non-repeat","null","385","stimuli/playground_46.jpg","","","","",""
"","","","","","image-keyboard-response","444","2.0.0","478842","pypx0kongsf","jaguar","null","stimuli/field_59.jpg","null","field","F","non-repeat","null","386","stimuli/field_59.jpg","","","","",""
"","","","","","image-keyboard-response","445","2.0.0","479850","pypx0kongsf","jaguar","null","stimuli/bridge_25.jpg","null","bridge","G","non-repeat","null","387","stimuli/bridge_25.jpg","","","","",""
"","","","","","image-keyboard-response","446","2.0.0","480859","pypx0kongsf","jaguar","null","stimuli/gym_32.jpg","null","gym","H","non-repeat","null","388","stimuli/gym_32.jpg","","","","",""
"","","","","","image-keyboard-response","447","2.0.0","481868","pypx0kongsf","jaguar","null","stimuli/street_62.jpg","null","street","I","non-repeat","null","389","stimuli/street_62.jpg","","","","",""
"","","","","","image-keyboard-response","448","2.0.0","482877","pypx0kongsf","jaguar","null","stimuli/stream_39.jpg","null","stream","D","non-repeat","null","390","stimuli/stream_39.jpg","","","","",""
"","","","","","image-keyboard-response","449","2.0.0","483887","pypx0kongsf","jaguar","null","stimuli/playground_46.jpg","null","playground","E","non-repeat","null","391","stimuli/playground_46.jpg","","","","",""
"","","","","","image-keyboard-response","450","2.0.0","484898","pypx0kongsf","jaguar","null","stimuli/field_59.jpg","null","field","F","non-repeat","null","392","stimuli/field_59.jpg","","","","",""
"","","","","","image-keyboard-response","451","2.0.0","485907","pypx0kongsf","jaguar","null","stimuli/bridge_25.jpg","null","bridge","G","non-repeat","null","393","stimuli/bridge_25.jpg","","","","",""
"","","","","","image-keyboard-response","452","2.0.0","486916","pypx0kongsf","jaguar","null","stimuli/gym_32.jpg","null","gym","H","non-repeat","null","394","stimuli/gym_32.jpg","","","","",""
"","","","","","image-keyboard-response","453","2.0.0","487925","pypx0kongsf","jaguar","null","stimuli/street_62.jpg","null","street","I","non-repeat","null","395","stimuli/street_62.jpg","","","","",""
"","","","","","image-keyboard-response","454","2.0.0","488935","pypx0kongsf","jaguar","653","stimuli/street_62.jpg"," ","street","I","repeat"," ","395","","","","","",""
"","","","","","html-keyboard-response","455","2.0.0","503919","pypx0kongsf","jaguar","14981","
    <div style='width:900px;margin: auto;'><p>In the next part of the experiment, we want to see how well you learned the structure in the stream of images.</p>
    <p>On each trial, you will see two sequences of three images, sequence 1 and 2. We will ask you to indicate which sequence was more familiar based on the first part of the experiment.</p>
    <p>Press 1 if the first sequence (sequence 1) felt more familiar. Press 2 if the second sequence (sequence 2) felt more familiar.</p>
    <p>Press any key to begin.</p></div>"," ","","","","","","","","","","",""
"","","","","","html-keyboard-response","456","2.0.0","504922","pypx0kongsf","jaguar","null","<p>Sequence 1</p>","null","","","","","","","","","","",""
"","","","","","image-keyboard-response","457","2.0.0","505933","pypx0kongsf","jaguar","null","stimuli/stream_39.jpg","null","","","","","","","","","","",""
"","","","","","image-keyboard-response","458","2.0.0","506941","pypx0kongsf","jaguar","null","stimuli/playground_46.jpg","null","","","","","","","","","","",""
"","","","","","image-keyboard-response","459","2.0.0","507949","pypx0kongsf","jaguar","null","stimuli/field_59.jpg","null","","","","","","","","","","",""
"","","","","","html-keyboard-response","460","2.0.0","508953","pypx0kongsf","jaguar","null","<p></p>","null","","","","","","","","","","",""
"","","","","","html-keyboard-response","461","2.0.0","509956","pypx0kongsf","jaguar","null","<p>Sequence 2</p>","null","","","","","","","","","","",""
"","","","","","image-keyboard-response","462","2.0.0","510965","pypx0kongsf","jaguar","null","stimuli/desert_46.jpg","null","","","","","","","","","","",""
"","","","","","image-keyboard-response","463","2.0.0","511972","pypx0kongsf","jaguar","null","stimuli/playground_46.jpg","null","","","","","","","","","","",""
"","","","","","image-keyboard-response","464","2.0.0","512981","pypx0kongsf","jaguar","null","stimuli/street_62.jpg","null","","","","","","","","","","",""
"","","","","","html-keyboard-response","465","2.0.0","514119","pypx0kongsf","jaguar","1135","<p>Press '1' if the first sequence was familiar, '2' if the second was.</p>","1","","","1","","","","[""D"",""E"",""F""]","[""A"",""E"",""I""]","true","[""<p>Sequence 1</p>"",""stimuli/stream_39.jpg"",""stimuli/playground_46.jpg"",""stimuli/field_59.jpg""]","[""<p>Sequence 2</p>"",""stimuli/desert_46.jpg"",""stimuli/playground_46.jpg"",""stimuli/street_62.jpg""]"
"","","","","","html-keyboard-response","466","2.0.0","515122","pypx0kongsf","jaguar","null","<p>Sequence 1</p>","null","","","","","","","","","","",""
"","","","","","image-keyboard-response","467","2.0.0","516131","pypx0kongsf","jaguar","null","stimuli/kitchen_62.jpg","null","","","","","","","","","","",""
"","","","","","image-keyboard-response","468","2.0.0","517141","pypx0kongsf","jaguar","null","stimuli/bar_52.jpg","null","","","","","","","","","","",""
"","","","","","image-keyboard-response","469","2.0.0","518149","pypx0kongsf","jaguar","null","stimuli/woods_61.jpg","null","","","","","","","","","","",""
"","","","","","html-keyboard-response","470","2.0.0","519152","pypx0kongsf","jaguar","null","<p></p>","null","","","","","","","","","","",""
"","","","","","html-keyboard-response","471","2.0.0","520155","pypx0kongsf","jaguar","null","<p>Sequence 2</p>","null","","","","","","","","","","",""
"","","","","","image-keyboard-response","472","2.0.0","521163","pypx0kongsf","jaguar","null","stimuli/desert_46.jpg","null","","","","","","","","","","",""
"","","","","","image-keyboard-response","473","2.0.0","522174","pypx0kongsf","jaguar","null","stimuli/playground_46.jpg","null","","","","","","","","","","",""
"","","","","","image-keyboard-response","474","2.0.0","523185","pypx0kongsf","jaguar","null","stimuli/street_62.jpg","null","","","","","","","","","","",""
"","","","","","html-keyboard-response","475","2.0.0","523945","pypx0kongsf","jaguar","758","<p>Press '1' if the first sequence was familiar, '2' if the second was.</p>","1","","","1","","","","[""J"",""K"",""L""]","[""A"",""E"",""I""]","true","[""<p>Sequence 1</p>"",""stimuli/kitchen_62.jpg"",""stimuli/bar_52.jpg"",""stimuli/woods_61.jpg""]","[""<p>Sequence 2</p>"",""stimuli/desert_46.jpg"",""stimuli/playground_46.jpg"",""stimuli/street_62.jpg""]"
"","","","","","html-keyboard-response","476","2.0.0","524949","pypx0kongsf","jaguar","null","<p>Sequence 1</p>","null","","","","","","","","","","",""
"","","","","","image-keyboard-response","477","2.0.0","525956","pypx0kongsf","jaguar","null","stimuli/kitchen_62.jpg","null","","","","","","","","","","",""
"","","","","","image-keyboard-response","478","2.0.0","526965","pypx0kongsf","jaguar","null","stimuli/bathroom_22.jpg","null","","","","","","","","","","",""
"","","","","","image-keyboard-response","479","2.0.0","527975","pypx0kongsf","jaguar","null","stimuli/field_59.jpg","null","","","","","","","","","","",""
"","","","","","html-keyboard-response","480","2.0.0","528978","pypx0kongsf","jaguar","null","<p></p>","null","","","","","","","","","","",""
"","","","","","html-keyboard-response","481","2.0.0","529981","pypx0kongsf","jaguar","null","<p>Sequence 2</p>","null","","","","","","","","","","",""
"","","","","","image-keyboard-response","482","2.0.0","530991","pypx0kongsf","jaguar","null","stimuli/desert_46.jpg","null","","","","","","","","","","",""
"","","","","","image-keyboard-response","483","2.0.0","531999","pypx0kongsf","jaguar","null","stimuli/bathroom_22.jpg","null","","","","","","","","","","",""
"","","","","","image-keyboard-response","484","2.0.0","533008","pypx0kongsf","jaguar","null","stimuli/coast_9.jpg","null","","","","","","","","","","",""
"","","","","","html-keyboard-response","485","2.0.0","533590","pypx0kongsf","jaguar","579","<p>Press '1' if the first sequence was familiar, '2' if the second was.</p>","2","","","2","","","","[""A"",""B"",""C""]","[""J"",""B"",""F""]","true","[""<p>Sequence 1</p>"",""stimuli/kitchen_62.jpg"",""stimuli/bathroom_22.jpg"",""stimuli/field_59.jpg""]","[""<p>Sequence 2</p>"",""stimuli/desert_46.jpg"",""stimuli/bathroom_22.jpg"",""stimuli/coast_9.jpg""]"
"","","","","","html-keyboard-response","486","2.0.0","534593","pypx0kongsf","jaguar","null","<p>Sequence 1</p>","null","","","","","","","","","","",""
"","","","","","image-keyboard-response","487","2.0.0","535601","pypx0kongsf","jaguar","null","stimuli/stream_39.jpg","null","","","","","","","","","","",""
"","","","","","image-keyboard-response","488","2.0.0","536612","pypx0kongsf","jaguar","null","stimuli/playground_46.jpg","null","","","","","","","","","","",""
"","","","","","image-keyboard-response","489","2.0.0","537621","pypx0kongsf","jaguar","null","stimuli/field_59.jpg","null","","","","","","","","","","",""
"","","","","","html-keyboard-response","490","2.0.0","538624","pypx0kongsf","jaguar","null","<p></p>","null","","","","","","","","","","",""
"","","","","","html-keyboard-response","491","2.0.0","539627","pypx0kongsf","jaguar","null","<p>Sequence 2</p>","null","","","","","","","","","","",""
"","","","","","image-keyboard-response","492","2.0.0","540637","pypx0kongsf","jaguar","null","stimuli/stream_39.jpg","null","","","","","","","","","","",""
"","","","","","image-keyboard-response","493","2.0.0","541646","pypx0kongsf","jaguar","null","stimuli/gym_32.jpg","null","","","","","","","","","","",""
"","","","","","image-keyboard-response","494","2.0.0","542653","pypx0kongsf","jaguar","null","stimuli/woods_61.jpg","null","","","","","","","","","","",""
"","","","","","html-keyboard-response","495","2.0.0","543588","pypx0kongsf","jaguar","933","<p>Press '1' if the first sequence was familiar, '2' if the second was.</p>","2","","","1","","","","[""D"",""E"",""F""]","[""D"",""H"",""L""]","false","[""<p>Sequence 1</p>"",""stimuli/stream_39.jpg"",""stimuli/playground_46.jpg"",""stimuli/field_59.jpg""]","[""<p>Sequence 2</p>"",""stimuli/stream_39.jpg"",""stimuli/gym_32.jpg"",""stimuli/woods_61.jpg""]"
"","","","","","html-keyboard-response","496","2.0.0","544591","pypx0kongsf","jaguar","null","<p>Sequence 1</p>","null","","","","","","","","","","",""
"","","","","","image-keyboard-response","497","2.0.0","545602","pypx0kongsf","jaguar","null","stimuli/desert_46.jpg","null","","","","","","","","","","",""
"","","","","","image-keyboard-response","498","2.0.0","546611","pypx0kongsf","jaguar","null","stimuli/bathroom_22.jpg","null","","","","","","","","","","",""
"","","","","","image-keyboard-response","499","2.0.0","547619","pypx0kongsf","jaguar","null","stimuli/coast_9.jpg","null","","","","","","","","","","",""
"","","","","","html-keyboard-response","500","2.0.0","548622","pypx0kongsf","jaguar","null","<p></p>","null","","","","","","","","","","",""
"","","","","","html-keyboard-response","501","2.0.0","549625","pypx0kongsf","jaguar","null","<p>Sequence 2</p>","null","","","","","","","","","","",""
